# author : Oliver Czoske
# source : E-SPE-NOVA-MET-1049_3-0 (METIS transmission budget)
# date_created : 2020-02-28
# date_modified : 2020-04-13
# status : version 3.0, theory
# type : dichroic
# wavelength_unit : um
# description : SCAO dichroic, 20mm @ 22.5deg
# comment : extracted from excel sheet "CFO only"
#
wavelength	transmission	reflection	emissivity
 0.50	0.0012348	0.9987652	0
 0.51	0.0079592	0.9920408	0
 0.52	0.0052060	0.9947940	0
 0.53	0.0098114	0.9901886	0
 0.54	0.0840366	0.9159634	0
 0.55	0.0618363	0.9381637	0
 0.56	0.0084491	0.9915509	0
 0.57	0.0402217	0.9597783	0
 0.58	0.2465714	0.7534286	0
 0.59	0.8150957	0.1849043	0
 0.60	0.5817989	0.4182011	0
 0.61	0.6740004	0.3259996	0
 0.62	0.3723081	0.6276919	0
 0.63	0.5384736	0.4615264	0
 0.64	0.7525786	0.2474214	0
 0.65	0.2782019	0.7217981	0
 0.66	0.2910881	0.7089119	0
 0.67	0.2979404	0.7020596	0
 0.68	0.5020077	0.4979923	0
 0.69	0.2014923	0.7985077	0
 0.70	0.2451132	0.7548868	0
 0.71	0.5929882	0.4070118	0
 0.72	0.3080335	0.6919665	0
 0.73	0.5597948	0.4402052	0
 0.74	0.2087265	0.7912735	0
 0.75	0.2818066	0.7181934	0
 0.76	0.5883226	0.4116774	0
 0.77	0.7181786	0.2818214	0
 0.78	0.3121712	0.6878288	0
 0.79	0.2721495	0.7278505	0
 0.80	0.7018512	0.2981488	0
 0.81	0.1967921	0.8032079	0
 0.82	0.1013793	0.8986207	0
 0.83	0.1678456	0.8321544	0
 0.84	0.6695428	0.3304572	0
 0.85	0.2534044	0.7465956	0
 0.86	0.1960270	0.8039730	0
 0.87	0.4682676	0.5317324	0
 0.88	0.5589459	0.4410541	0
 0.89	0.2950517	0.7049483	0
 0.90	0.3511714	0.6488286	0
 0.91	0.2574319	0.7425681	0
 0.92	0.1143911	0.8856089	0
 0.93	0.0894549	0.9105451	0
 0.94	0.1339385	0.8660615	0
 0.95	0.3451380	0.6548620	0
 0.96	0.4229121	0.5770879	0
 0.97	0.2888803	0.7111197	0
 0.98	0.3751015	0.6248985	0
 0.99	0.6466014	0.3533986	0
 1.00	0.2739324	0.7260676	0
 1.01	0.1095408	0.8904592	0
 1.02	0.0723137	0.9276863	0
 1.03	0.0713759	0.9286241	0
 1.04	0.1004775	0.8995225	0
 1.05	0.2007742	0.7992258	0
 1.06	0.4766891	0.5233109	0
 1.07	0.5557058	0.4442942	0
 1.08	0.4020794	0.5979206	0
 1.09	0.3848673	0.6151327	0
 1.10	0.4870245	0.5129755	0
 1.11	0.5103082	0.4896918	0
 1.12	0.3169621	0.6830379	0
 1.13	0.1921040	0.8078960	0
 1.14	0.1482184	0.8517816	0
 1.15	0.1517569	0.8482431	0
 1.16	0.2122388	0.7877612	0
 1.17	0.4127905	0.5872095	0
 1.18	0.5774124	0.4225876	0
 1.19	0.2450512	0.7549488	0
 1.20	0.1030431	0.8969569	0
 1.21	0.0578830	0.9421170	0
 1.22	0.0412334	0.9587666	0
 1.23	0.0357287	0.9642713	0
 1.24	0.0370659	0.9629341	0
 1.25	0.0462833	0.9537167	0
 1.26	0.0715660	0.9284340	0
 1.27	0.1454587	0.8545413	0
 1.28	0.4058265	0.5941735	0
 1.29	0.7296239	0.2703761	0
 1.30	0.3719291	0.6280709	0
 1.31	0.2192922	0.7807078	0
 1.32	0.1841248	0.8158752	0
 1.33	0.2103268	0.7896732	0
 1.34	0.3202714	0.6797286	0
 1.35	0.5514779	0.4485221	0
 1.36	0.4974575	0.5025425	0
 1.37	0.2482848	0.7517152	0
 1.38	0.1344052	0.8655948	0
 1.39	0.0895243	0.9104757	0
 1.40	0.0714893	0.9285107	0
 1.41	0.0664501	0.9335499	0
 1.42	0.0705680	0.9294320	0
 1.43	0.0845280	0.9154720	0
 1.44	0.1123073	0.8876927	0
 1.45	0.1583364	0.8416636	0
 1.46	0.2109578	0.7890422	0
 1.47	0.2255198	0.7744802	0
 1.48	0.1921083	0.8078917	0
 1.49	0.1515604	0.8484396	0
 1.50	0.1233384	0.8766616	0
 1.51	0.1073092	0.8926908	0
 1.52	0.1001016	0.8998984	0
 1.53	0.0993023	0.9006977	0
 1.54	0.1035541	0.8964459	0
 1.55	0.1120917	0.8879083	0
 1.56	0.1243426	0.8756574	0
 1.57	0.1396499	0.8603501	0
 1.58	0.1570978	0.8429022	0
 1.59	0.1753570	0.8246430	0
 1.60	0.1923859	0.8076141	0
 1.61	0.2050199	0.7949801	0
 1.62	0.2091590	0.7908410	0
 1.63	0.2016762	0.7983238	0
 1.64	0.1832852	0.8167148	0
 1.65	0.1588287	0.8411713	0
 1.66	0.1340327	0.8659673	0
 1.67	0.1125708	0.8874292	0
 1.68	0.0957122	0.9042878	0
 1.69	0.0833191	0.9166809	0
 1.70	0.0747683	0.9252317	0
 1.71	0.0694358	0.9305642	0
 1.72	0.0668841	0.9331159	0
 1.73	0.0669202	0.9330798	0
 1.74	0.0696237	0.9303763	0
 1.75	0.0753918	0.9246082	0
 1.76	0.0850253	0.9149747	0
 1.77	0.0998511	0.9001489	0
 1.78	0.1218013	0.8781987	0
 1.79	0.1530758	0.8469242	0
 1.80	0.1942572	0.8057428	0
 1.81	0.2391082	0.7608918	0
 1.82	0.2694795	0.7305205	0
 1.83	0.2672470	0.7327530	0
 1.84	0.2373091	0.7626909	0
 1.85	0.1992986	0.8007014	0
 1.86	0.1661670	0.8338330	0
 1.87	0.1414530	0.8585470	0
 1.88	0.1245300	0.8754700	0
 1.89	0.1139167	0.8860833	0
 1.90	0.1083952	0.8916048	0
 1.91	0.1072336	0.8927664	0
 1.92	0.1101641	0.8898359	0
 1.93	0.1173198	0.8826802	0
 1.94	0.1291491	0.8708509	0
 1.95	0.1462221	0.8537779	0
 1.96	0.1687185	0.8312815	0
 1.97	0.1952987	0.8047013	0
 1.98	0.2214381	0.7785619	0
 1.99	0.2388839	0.7611161	0
 2.00	0.2393090	0.7606910	0
 2.01	0.2212362	0.7787638	0
 2.02	0.1919560	0.8080440	0
 2.03	0.1610241	0.8389759	0
 2.04	0.1341930	0.8658070	0
 2.05	0.1130874	0.8869126	0
 2.06	0.0972664	0.9027336	0
 2.07	0.0857206	0.9142794	0
 2.08	0.0774939	0.9225061	0
 2.09	0.0718469	0.9281531	0
 2.10	0.0682587	0.9317413	0
 2.11	0.0663868	0.9336132	0
 2.12	0.0660289	0.9339711	0
 2.13	0.0670940	0.9329060	0
 2.14	0.0695847	0.9304153	0
 2.15	0.0735869	0.9264131	0
 2.16	0.0792640	0.9207360	0
 2.17	0.0868506	0.9131494	0
 2.18	0.0966367	0.9033633	0
 2.19	0.1089294	0.8910706	0
 2.20	0.1239702	0.8760298	0
 2.21	0.1417816	0.8582184	0
 2.22	0.1619349	0.8380651	0
 2.23	0.1832772	0.8167228	0
 2.24	0.2037921	0.7962079	0
 2.25	0.2208444	0.7791556	0
 2.26	0.2319513	0.7680487	0
 2.27	0.2357840	0.7642160	0
 2.28	0.2327287	0.7672713	0
 2.29	0.2245759	0.7754241	0
 2.30	0.2136409	0.7863591	0
 2.31	0.2019695	0.7980305	0
 2.32	0.1909852	0.8090148	0
 2.33	0.1815054	0.8184946	0
 2.34	0.1739129	0.8260871	0
 2.35	0.1683336	0.8316664	0
 2.36	0.1647679	0.8352321	0
 2.37	0.1631722	0.8368278	0
 2.38	0.1635050	0.8364950	0
 2.39	0.1657510	0.8342490	0
 2.40	0.1699320	0.8300680	0
 2.41	0.1761128	0.8238872	0
 2.42	0.1844015	0.8155985	0
 2.43	0.1949488	0.8050512	0
 2.44	0.2079441	0.7920559	0
 2.45	0.2236081	0.7763919	0
 2.46	0.2421804	0.7578196	0
 2.47	0.2639004	0.7360996	0
 2.48	0.2889782	0.7110218	0
 2.49	0.3175548	0.6824452	0
 2.50	0.3496522	0.6503478	0
 2.51	0.3851001	0.6148999	0
 2.52	0.4235202	0.5764798	0
 2.53	0.4642510	0.5357490	0
 2.54	0.5063512	0.4936488	0
 2.55	0.5486433	0.4513567	0
 2.56	0.5898153	0.4101847	0
 2.57	0.6285705	0.3714295	0
 2.58	0.6637951	0.3362049	0
 2.59	0.6947030	0.3052970	0
 2.60	0.7209198	0.2790802	0
 2.61	0.7424839	0.2575161	0
 2.62	0.7597867	0.2402133	0
 2.63	0.7734543	0.2265457	0
 2.64	0.7842265	0.2157735	0
 2.65	0.7928494	0.2071506	0
 2.66	0.7999989	0.2000011	0
 2.67	0.8062354	0.1937646	0
 2.68	0.8119868	0.1880132	0
 2.69	0.8175497	0.1824503	0
 2.70	0.8231020	0.1768980	0
 2.71	0.8287227	0.1712773	0
 2.72	0.8344129	0.1655871	0
 2.73	0.8401178	0.1598822	0
 2.74	0.8457466	0.1542534	0
 2.75	0.8511911	0.1488089	0
 2.76	0.8563421	0.1436579	0
 2.77	0.8611021	0.1388979	0
 2.78	0.8653960	0.1346040	0
 2.79	0.8691766	0.1308234	0
 2.80	0.8724287	0.1275713	0
 2.81	0.8751688	0.1248312	0
 2.82	0.8774418	0.1225582	0
 2.83	0.8793166	0.1206834	0
 2.84	0.8808791	0.1191209	0
 2.85	0.8822256	0.1177744	0
 2.86	0.8834561	0.1165439	0
 2.87	0.8846671	0.1153329	0
 2.88	0.8859470	0.1140530	0
 2.89	0.8873706	0.1126294	0
 2.90	0.8889975	0.1110025	0
 2.91	0.8908688	0.1091312	0
 2.92	0.8930068	0.1069932	0
 2.93	0.8954150	0.1045850	0
 2.94	0.8980790	0.1019210	0
 2.95	0.9009675	0.0990325	0
 2.96	0.9040352	0.0959648	0
 2.97	0.9072247	0.0927753	0
 2.98	0.9104697	0.0895303	0
 2.99	0.9136985	0.0863015	0
 3.00	0.9168364	0.0831636	0
 3.01	0.9198111	0.0801889	0
 3.02	0.9225522	0.0774478	0
 3.03	0.9249969	0.0750031	0
 3.04	0.9270927	0.0729073	0
 3.05	0.9287981	0.0712019	0
 3.06	0.9300851	0.0699149	0
 3.07	0.9309399	0.0690601	0
 3.08	0.9313623	0.0686377	0
 3.09	0.9313660	0.0686340	0
 3.10	0.9309772	0.0690228	0
 3.11	0.9302330	0.0697670	0
 3.12	0.9291790	0.0708210	0
 3.13	0.9278680	0.0721320	0
 3.14	0.9263569	0.0736431	0
 3.15	0.9247048	0.0752952	0
 3.16	0.9229710	0.0770290	0
 3.17	0.9212128	0.0787872	0
 3.18	0.9194836	0.0805164	0
 3.19	0.9178323	0.0821677	0
 3.20	0.9163017	0.0836983	0
 3.21	0.9149277	0.0850723	0
 3.22	0.9137392	0.0862608	0
 3.23	0.9127570	0.0872430	0
 3.24	0.9119950	0.0880050	0
 3.25	0.9114594	0.0885406	0
 3.26	0.9111492	0.0888508	0
 3.27	0.9110571	0.0889429	0
 3.28	0.9111697	0.0888303	0
 3.29	0.9114680	0.0885320	0
 3.30	0.9119286	0.0880714	0
 3.31	0.9125242	0.0874758	0
 3.32	0.9132243	0.0867757	0
 3.33	0.9139966	0.0860034	0
 3.34	0.9148073	0.0851927	0
 3.35	0.9156223	0.0843777	0
 3.36	0.9164082	0.0835918	0
 3.37	0.9171325	0.0828675	0
 3.38	0.9177652	0.0822348	0
 3.39	0.9182790	0.0817210	0
 3.40	0.9186501	0.0813499	0
 3.41	0.9188583	0.0811417	0
 3.42	0.9188879	0.0811121	0
 3.43	0.9187280	0.0812720	0
 3.44	0.9183717	0.0816283	0
 3.45	0.9178174	0.0821826	0
 3.46	0.9170678	0.0829322	0
 3.47	0.9161300	0.0838700	0
 3.48	0.9150151	0.0849849	0
 3.49	0.9137376	0.0862624	0
 3.50	0.9123152	0.0876848	0
 3.51	0.9107681	0.0892319	0
 3.52	0.9091183	0.0908817	0
 3.53	0.9073897	0.0926103	0
 3.54	0.9056065	0.0943935	0
 3.55	0.9037935	0.0962065	0
 3.56	0.9019750	0.0980250	0
 3.57	0.9001752	0.0998248	0
 3.58	0.8984166	0.1015834	0
 3.59	0.8967207	0.1032793	0
 3.60	0.8951074	0.1048926	0
 3.61	0.8935942	0.1064058	0
 3.62	0.8921969	0.1078031	0
 3.63	0.8909289	0.1090711	0
 3.64	0.8898013	0.1101987	0
 3.65	0.8888229	0.1111771	0
 3.66	0.8880001	0.1119999	0
 3.67	0.8873368	0.1126632	0
 3.68	0.8868349	0.1131651	0
 3.69	0.8864938	0.1135062	0
 3.70	0.8863113	0.1136887	0
 3.71	0.8862826	0.1137174	0
 3.72	0.8864015	0.1135985	0
 3.73	0.8866602	0.1133398	0
 3.74	0.8870492	0.1129508	0
 3.75	0.8875578	0.1124422	0
 3.76	0.8881741	0.1118259	0
 3.77	0.8888851	0.1111149	0
 3.78	0.8896777	0.1103223	0
 3.79	0.8905373	0.1094627	0
 3.80	0.8914498	0.1085502	0
 3.81	0.8924002	0.1075998	0
 3.82	0.8933743	0.1066257	0
 3.83	0.8943578	0.1056422	0
 3.84	0.8953367	0.1046633	0
 3.85	0.8962977	0.1037023	0
 3.86	0.8972282	0.1027718	0
 3.87	0.8981165	0.1018835	0
 3.88	0.8989519	0.1010481	0
 3.89	0.8997247	0.1002753	0
 3.90	0.9004267	0.0995733	0
 3.91	0.9010506	0.0989494	0
 3.92	0.9015909	0.0984091	0
 3.93	0.9020431	0.0979569	0
 3.94	0.9024044	0.0975956	0
 3.95	0.9026730	0.0973270	0
 3.96	0.9028490	0.0971510	0
 3.97	0.9029333	0.0970667	0
 3.98	0.9029282	0.0970718	0
 3.99	0.9028372	0.0971628	0
 4.00	0.9026649	0.0973351	0
 4.01	0.9024169	0.0975831	0
 4.02	0.9020996	0.0979004	0
 4.03	0.9017199	0.0982801	0
 4.04	0.9012858	0.0987142	0
 4.05	0.9008053	0.0991947	0
 4.06	0.9002872	0.0997128	0
 4.07	0.8997401	0.1002599	0
 4.08	0.8991731	0.1008269	0
 4.09	0.8985954	0.1014046	0
 4.10	0.8980156	0.1019844	0
 4.11	0.8974426	0.1025574	0
 4.12	0.8968848	0.1031152	0
 4.13	0.8963504	0.1036496	0
 4.14	0.8958472	0.1041528	0
 4.15	0.8953822	0.1046178	0
 4.16	0.8949622	0.1050378	0
 4.17	0.8945935	0.1054065	0
 4.18	0.8942814	0.1057186	0
 4.19	0.8940308	0.1059692	0
 4.20	0.8938461	0.1061539	0
 4.21	0.8937305	0.1062695	0
 4.22	0.8936873	0.1063127	0
 4.23	0.8937183	0.1062817	0
 4.24	0.8938253	0.1061747	0
 4.25	0.8940090	0.1059910	0
 4.26	0.8942696	0.1057304	0
 4.27	0.8946066	0.1053934	0
 4.28	0.8950191	0.1049809	0
 4.29	0.8955054	0.1044946	0
 4.30	0.8960633	0.1039367	0
 4.31	0.8966902	0.1033098	0
 4.32	0.8973827	0.1026173	0
 4.33	0.8981373	0.1018627	0
 4.34	0.8989499	0.1010501	0
 4.35	0.8998159	0.1001841	0
 4.36	0.9007307	0.0992693	0
 4.37	0.9016892	0.0983108	0
 4.38	0.9026860	0.0973140	0
 4.39	0.9037156	0.0962844	0
 4.40	0.9047723	0.0952277	0
 4.41	0.9058501	0.0941499	0
 4.42	0.9069434	0.0930566	0
 4.43	0.9080458	0.0919542	0
 4.44	0.9091518	0.0908482	0
 4.45	0.9102553	0.0897447	0
 4.46	0.9113505	0.0886495	0
 4.47	0.9124318	0.0875682	0
 4.48	0.9134936	0.0865064	0
 4.49	0.9145306	0.0854694	0
 4.50	0.9155379	0.0844621	0
 4.51	0.9165105	0.0834895	0
 4.52	0.9174441	0.0825559	0
 4.53	0.9183343	0.0816657	0
 4.54	0.9191774	0.0808226	0
 4.55	0.9199699	0.0800301	0
 4.56	0.9207089	0.0792911	0
 4.57	0.9213916	0.0786084	0
 4.58	0.9220158	0.0779842	0
 4.59	0.9225794	0.0774206	0
 4.60	0.9230812	0.0769188	0
 4.61	0.9235204	0.0764796	0
 4.62	0.9238963	0.0761037	0
 4.63	0.9242084	0.0757916	0
 4.64	0.9244569	0.0755431	0
 4.65	0.9246427	0.0753573	0
 4.66	0.9247664	0.0752336	0
 4.67	0.9248293	0.0751707	0
 4.68	0.9248333	0.0751667	0
 4.69	0.9247801	0.0752199	0
 4.70	0.9246720	0.0753280	0
 4.71	0.9245114	0.0754886	0
 4.72	0.9243012	0.0756988	0
 4.73	0.9240441	0.0759559	0
 4.74	0.9237434	0.0762566	0
 4.75	0.9234023	0.0765977	0
 4.76	0.9230241	0.0769759	0
 4.77	0.9226125	0.0773875	0
 4.78	0.9221710	0.0778290	0
 4.79	0.9217033	0.0782967	0
 4.80	0.9212129	0.0787871	0
 4.81	0.9207037	0.0792963	0
 4.82	0.9201793	0.0798207	0
 4.83	0.9196432	0.0803568	0
 4.84	0.9190992	0.0809008	0
 4.85	0.9185506	0.0814494	0
 4.86	0.9180010	0.0819990	0
 4.87	0.9174535	0.0825465	0
 4.88	0.9169115	0.0830885	0
 4.89	0.9163779	0.0836221	0
 4.90	0.9158556	0.0841444	0
 4.91	0.9153474	0.0846526	0
 4.92	0.9148558	0.0851442	0
 4.93	0.9143835	0.0856165	0
 4.94	0.9139324	0.0860676	0
 4.95	0.9135048	0.0864952	0
 4.96	0.9131024	0.0868976	0
 4.97	0.9127271	0.0872729	0
 4.98	0.9123803	0.0876197	0
 4.99	0.9120632	0.0879368	0
 5.00	0.9117771	0.0882229	0
 5.01	0.9115433	0.0884567	0
 5.02	0.9113428	0.0886572	0
 5.03	0.9111763	0.0888237	0
 5.04	0.9110443	0.0889557	0
 5.05	0.9109470	0.0890530	0
 5.06	0.9108842	0.0891158	0
 5.07	0.9108561	0.0891439	0
 5.08	0.9108621	0.0891379	0
 5.09	0.9109019	0.0890981	0
 5.10	0.9109749	0.0890251	0
 5.11	0.9110803	0.0889197	0
 5.12	0.9112172	0.0887828	0
 5.13	0.9113846	0.0886154	0
 5.14	0.9115813	0.0884187	0
 5.15	0.9118060	0.0881940	0
 5.16	0.9120575	0.0879425	0
 5.17	0.9123342	0.0876658	0
 5.18	0.9126346	0.0873654	0
 5.19	0.9129571	0.0870429	0
 5.20	0.9132999	0.0867001	0
 5.21	0.9136612	0.0863388	0
 5.22	0.9140392	0.0859608	0
 5.23	0.9144322	0.0855678	0
 5.24	0.9148381	0.0851619	0
 5.25	0.9152550	0.0847450	0
 5.26	0.9156808	0.0843192	0
 5.27	0.9161139	0.0838861	0
 5.28	0.9165519	0.0834481	0
 5.29	0.9169930	0.0830070	0
 5.30	0.9174352	0.0825648	0
 5.31	0.9178765	0.0821235	0
 5.32	0.9183150	0.0816850	0
 5.33	0.9187489	0.0812511	0
 5.34	0.9191762	0.0808238	0
 5.35	0.9195950	0.0804050	0
 5.36	0.9200037	0.0799963	0
 5.37	0.9204006	0.0795994	0
 5.38	0.9207840	0.0792160	0
 5.39	0.9211523	0.0788477	0
 5.40	0.9215039	0.0784961	0
 5.41	0.9218374	0.0781626	0
 5.42	0.9221514	0.0778486	0
 5.43	0.9224448	0.0775552	0
 5.44	0.9227164	0.0772836	0
 5.45	0.9229651	0.0770349	0
 5.46	0.9231897	0.0768103	0
 5.47	0.9233896	0.0766104	0
 5.48	0.9235638	0.0764362	0
 5.49	0.9237117	0.0762883	0
 5.50	0.9238326	0.0761674	0
 5.51	0.9239470	0.0760530	0
 5.52	0.9240327	0.0759673	0
 5.53	0.9240898	0.0759102	0
 5.54	0.9241178	0.0758822	0
 5.55	0.9241167	0.0758833	0
 5.56	0.9240865	0.0759135	0
 5.57	0.9240273	0.0759727	0
 5.58	0.9239393	0.0760607	0
 5.59	0.9238227	0.0761773	0
 5.60	0.9236778	0.0763222	0
 5.61	0.9235053	0.0764947	0
 5.62	0.9233055	0.0766945	0
 5.63	0.9230791	0.0769209	0
 5.64	0.9228267	0.0771733	0
 5.65	0.9225491	0.0774509	0
 5.66	0.9222472	0.0777528	0
 5.67	0.9219217	0.0780783	0
 5.68	0.9215736	0.0784264	0
 5.69	0.9212040	0.0787960	0
 5.70	0.9208138	0.0791862	0
 5.71	0.9204041	0.0795959	0
 5.72	0.9199760	0.0800240	0
 5.73	0.9195307	0.0804693	0
 5.74	0.9190694	0.0809306	0
 5.75	0.9185931	0.0814069	0
 5.76	0.9181032	0.0818968	0
 5.77	0.9176009	0.0823991	0
 5.78	0.9170875	0.0829125	0
 5.79	0.9165641	0.0834359	0
 5.80	0.9160321	0.0839679	0
 5.81	0.9154927	0.0845073	0
 5.82	0.9149471	0.0850529	0
 5.83	0.9143967	0.0856033	0
 5.84	0.9138426	0.0861574	0
 5.85	0.9132861	0.0867139	0
 5.86	0.9127283	0.0872717	0
 5.87	0.9121704	0.0878296	0
 5.88	0.9116136	0.0883864	0
 5.89	0.9110591	0.0889409	0
 5.90	0.9105080	0.0894920	0
 5.91	0.9099613	0.0900387	0
 5.92	0.9094200	0.0905800	0
 5.93	0.9088853	0.0911147	0
 5.94	0.9083580	0.0916420	0
 5.95	0.9078391	0.0921609	0
 5.96	0.9073295	0.0926705	0
 5.97	0.9068301	0.0931699	0
 5.98	0.9063417	0.0936583	0
 5.99	0.9058651	0.0941349	0
 6.00	0.9054011	0.0945989	0
 6.01	0.9049533	0.0950467	0
 6.02	0.9045195	0.0954805	0
 6.03	0.9041003	0.0958997	0
 6.04	0.9036962	0.0963038	0
 6.05	0.9033080	0.0966920	0
 6.06	0.9029357	0.0970643	0
 6.07	0.9025803	0.0974197	0
 6.08	0.9022417	0.0977583	0
 6.09	0.9019207	0.0980793	0
 6.10	0.9016173	0.0983827	0
 6.11	0.9013319	0.0986681	0
 6.12	0.9010648	0.0989352	0
 6.13	0.9008161	0.0991839	0
 6.14	0.9005859	0.0994141	0
 6.15	0.9003745	0.0996255	0
 6.16	0.9001817	0.0998183	0
 6.17	0.9000078	0.0999922	0
 6.18	0.8998527	0.1001473	0
 6.19	0.8997163	0.1002837	0
 6.20	0.8995987	0.1004013	0
 6.21	0.8994999	0.1005001	0
 6.22	0.8994196	0.1005804	0
 6.23	0.8993576	0.1006424	0
 6.24	0.8993137	0.1006863	0
 6.25	0.8992876	0.1007124	0
 6.26	0.8992792	0.1007208	0
 6.27	0.8992880	0.1007120	0
 6.28	0.8993139	0.1006861	0
 6.29	0.8993563	0.1006437	0
 6.30	0.8994151	0.1005849	0
 6.31	0.8994897	0.1005103	0
 6.32	0.8995798	0.1004202	0
 6.33	0.8996851	0.1003149	0
 6.34	0.8998049	0.1001951	0
 6.35	0.8999390	0.1000610	0
 6.36	0.9000866	0.0999134	0
 6.37	0.9002474	0.0997526	0
 6.38	0.9004209	0.0995791	0
 6.39	0.9006065	0.0993935	0
 6.40	0.9008038	0.0991962	0
 6.41	0.9010120	0.0989880	0
 6.42	0.9012308	0.0987692	0
 6.43	0.9014594	0.0985406	0
 6.44	0.9016975	0.0983025	0
 6.45	0.9019442	0.0980558	0
 6.46	0.9021992	0.0978008	0
 6.47	0.9024618	0.0975382	0
 6.48	0.9027313	0.0972687	0
 6.49	0.9030073	0.0969927	0
 6.50	0.9032891	0.0967109	0
 6.51	0.9035812	0.0964188	0
 6.52	0.9038779	0.0961221	0
 6.53	0.9041786	0.0958214	0
 6.54	0.9044828	0.0955172	0
 6.55	0.9047897	0.0952103	0
 6.56	0.9050990	0.0949010	0
 6.57	0.9054099	0.0945901	0
 6.58	0.9057219	0.0942781	0
 6.59	0.9060344	0.0939656	0
 6.60	0.9063469	0.0936531	0
 6.61	0.9066591	0.0933409	0
 6.62	0.9069701	0.0930299	0
 6.63	0.9072796	0.0927204	0
 6.64	0.9075868	0.0924132	0
 6.65	0.9078914	0.0921086	0
 6.66	0.9081928	0.0918072	0
 6.67	0.9084906	0.0915094	0
 6.68	0.9087843	0.0912157	0
 6.69	0.9090734	0.0909266	0
 6.70	0.9093576	0.0906424	0
 6.71	0.9096365	0.0903635	0
 6.72	0.9099094	0.0900906	0
 6.73	0.9101762	0.0898238	0
 6.74	0.9104366	0.0895634	0
 6.75	0.9106899	0.0893101	0
 6.76	0.9109362	0.0890638	0
 6.77	0.9111749	0.0888251	0
 6.78	0.9114056	0.0885944	0
 6.79	0.9116283	0.0883717	0
 6.80	0.9118427	0.0881573	0
 6.81	0.9120483	0.0879517	0
 6.82	0.9122452	0.0877548	0
 6.83	0.9124330	0.0875670	0
 6.84	0.9126116	0.0873884	0
 6.85	0.9127808	0.0872192	0
 6.86	0.9129404	0.0870596	0
 6.87	0.9130903	0.0869097	0
 6.88	0.9132304	0.0867696	0
 6.89	0.9133607	0.0866393	0
 6.90	0.9134809	0.0865191	0
 6.91	0.9135912	0.0864088	0
 6.92	0.9136913	0.0863087	0
 6.93	0.9137813	0.0862187	0
 6.94	0.9138612	0.0861388	0
 6.95	0.9139310	0.0860690	0
 6.96	0.9139907	0.0860093	0
 6.97	0.9140404	0.0859596	0
 6.98	0.9140800	0.0859200	0
 6.99	0.9141098	0.0858902	0
 7.00	0.9141298	0.0858702	0
 7.01	0.9141434	0.0858566	0
 7.02	0.9141473	0.0858527	0
 7.03	0.9141417	0.0858583	0
 7.04	0.9141267	0.0858733	0
 7.05	0.9141024	0.0858976	0
 7.06	0.9140691	0.0859309	0
 7.07	0.9140269	0.0859731	0
 7.08	0.9139760	0.0860240	0
 7.09	0.9139165	0.0860835	0
 7.10	0.9138487	0.0861513	0
 7.11	0.9137729	0.0862271	0
 7.12	0.9136893	0.0863107	0
 7.13	0.9135979	0.0864021	0
 7.14	0.9134993	0.0865007	0
 7.15	0.9133936	0.0866064	0
 7.16	0.9132809	0.0867191	0
 7.17	0.9131618	0.0868382	0
 7.18	0.9130363	0.0869637	0
 7.19	0.9129049	0.0870951	0
 7.20	0.9127676	0.0872324	0
 7.21	0.9126249	0.0873751	0
 7.22	0.9124771	0.0875229	0
 7.23	0.9123244	0.0876756	0
 7.24	0.9121671	0.0878329	0
 7.25	0.9120057	0.0879943	0
 7.26	0.9118402	0.0881598	0
 7.27	0.9116711	0.0883289	0
 7.28	0.9114986	0.0885014	0
 7.29	0.9113232	0.0886768	0
 7.30	0.9111450	0.0888550	0
 7.31	0.9109644	0.0890356	0
 7.32	0.9107817	0.0892183	0
 7.33	0.9105972	0.0894028	0
 7.34	0.9104112	0.0895888	0
 7.35	0.9102241	0.0897759	0
 7.36	0.9100359	0.0899641	0
 7.37	0.9098473	0.0901527	0
 7.38	0.9096584	0.0903416	0
 7.39	0.9094695	0.0905305	0
 7.40	0.9092809	0.0907191	0
 7.41	0.9090929	0.0909071	0
 7.42	0.9089058	0.0910942	0
 7.43	0.9087199	0.0912801	0
 7.44	0.9085354	0.0914646	0
 7.45	0.9083526	0.0916474	0
 7.46	0.9081718	0.0918282	0
 7.47	0.9079932	0.0920068	0
 7.48	0.9078171	0.0921829	0
 7.49	0.9076437	0.0923563	0
 7.50	0.9074733	0.0925267	0
 7.51	0.9073087	0.0926913	0
 7.52	0.9071477	0.0928523	0
 7.53	0.9069903	0.0930097	0
 7.54	0.9068368	0.0931632	0
 7.55	0.9066875	0.0933125	0
 7.56	0.9065424	0.0934576	0
 7.57	0.9064020	0.0935980	0
 7.58	0.9062663	0.0937337	0
 7.59	0.9061354	0.0938646	0
 7.60	0.9060098	0.0939902	0
 7.61	0.9058894	0.0941106	0
 7.62	0.9057744	0.0942256	0
 7.63	0.9056651	0.0943349	0
 7.64	0.9055615	0.0944385	0
 7.65	0.9054638	0.0945362	0
 7.66	0.9053722	0.0946278	0
 7.67	0.9052868	0.0947132	0
 7.68	0.9052077	0.0947923	0
 7.69	0.9051350	0.0948650	0
 7.70	0.9050689	0.0949311	0
 7.71	0.9050094	0.0949906	0
 7.72	0.9049567	0.0950433	0
 7.73	0.9049107	0.0950893	0
 7.74	0.9048717	0.0951283	0
 7.75	0.9048397	0.0951603	0
 7.76	0.9048148	0.0951852	0
 7.77	0.9047969	0.0952031	0
 7.78	0.9047863	0.0952137	0
 7.79	0.9047829	0.0952171	0
 7.80	0.9047867	0.0952133	0
 7.81	0.9047992	0.0952008	0
 7.82	0.9048191	0.0951809	0
 7.83	0.9048463	0.0951537	0
 7.84	0.9048809	0.0951191	0
 7.85	0.9049229	0.0950771	0
 7.86	0.9049725	0.0950275	0
 7.87	0.9050293	0.0949707	0
 7.88	0.9050935	0.0949065	0
 7.89	0.9051652	0.0948348	0
 7.90	0.9052441	0.0947559	0
 7.91	0.9053305	0.0946695	0
 7.92	0.9054241	0.0945759	0
 7.93	0.9055250	0.0944750	0
 7.94	0.9056330	0.0943670	0
 7.95	0.9057483	0.0942517	0
 7.96	0.9058706	0.0941294	0
 7.97	0.9060000	0.0940000	0
 7.98	0.9061364	0.0938636	0
 7.99	0.9062797	0.0937203	0
 8.00	0.9064298	0.0935702	0
 8.01	0.9065907	0.0934093	0
 8.02	0.9067583	0.0932417	0
 8.03	0.9069325	0.0930675	0
 8.04	0.9071133	0.0928867	0
 8.05	0.9073004	0.0926996	0
 8.06	0.9074939	0.0925061	0
 8.07	0.9076936	0.0923064	0
 8.08	0.9078995	0.0921005	0
 8.09	0.9081112	0.0918888	0
 8.10	0.9083289	0.0916711	0
 8.11	0.9085523	0.0914477	0
 8.12	0.9087814	0.0912186	0
 8.13	0.9090160	0.0909840	0
 8.14	0.9092560	0.0907440	0
 8.15	0.9095012	0.0904988	0
 8.16	0.9097515	0.0902485	0
 8.17	0.9100068	0.0899932	0
 8.18	0.9102670	0.0897330	0
 8.19	0.9105318	0.0894682	0
 8.20	0.9108012	0.0891988	0
 8.21	0.9110741	0.0889259	0
 8.22	0.9113512	0.0886488	0
 8.23	0.9116324	0.0883676	0
 8.24	0.9119176	0.0880824	0
 8.25	0.9122066	0.0877934	0
 8.26	0.9124992	0.0875008	0
 8.27	0.9127953	0.0872047	0
 8.28	0.9130949	0.0869051	0
 8.29	0.9133975	0.0866025	0
 8.30	0.9137032	0.0862968	0
 8.31	0.9140117	0.0859883	0
 8.32	0.9143229	0.0856771	0
 8.33	0.9146367	0.0853633	0
 8.34	0.9149529	0.0850471	0
 8.35	0.9152711	0.0847289	0
 8.36	0.9155915	0.0844085	0
 8.37	0.9159138	0.0840862	0
 8.38	0.9162377	0.0837623	0
 8.39	0.9165632	0.0834368	0
 8.40	0.9168901	0.0831099	0
 8.41	0.9172182	0.0827818	0
 8.42	0.9175474	0.0824526	0
 8.43	0.9178775	0.0821225	0
 8.44	0.9182083	0.0817917	0
 8.45	0.9185397	0.0814603	0
 8.46	0.9188715	0.0811285	0
 8.47	0.9192035	0.0807965	0
 8.48	0.9195357	0.0804643	0
 8.49	0.9198678	0.0801322	0
 8.50	0.9201996	0.0798004	0
 8.51	0.9205357	0.0794643	0
 8.52	0.9208712	0.0791288	0
 8.53	0.9212061	0.0787939	0
 8.54	0.9215400	0.0784600	0
 8.55	0.9218729	0.0781271	0
 8.56	0.9222046	0.0777954	0
 8.57	0.9225349	0.0774651	0
 8.58	0.9228639	0.0771361	0
 8.59	0.9231912	0.0768088	0
 8.60	0.9235167	0.0764833	0
 8.61	0.9238403	0.0761597	0
 8.62	0.9241618	0.0758382	0
 8.63	0.9244812	0.0755188	0
 8.64	0.9247983	0.0752017	0
 8.65	0.9251129	0.0748871	0
 8.66	0.9254249	0.0745751	0
 8.67	0.9257343	0.0742657	0
 8.68	0.9260406	0.0739594	0
 8.69	0.9263441	0.0736559	0
 8.70	0.9266446	0.0733554	0
 8.71	0.9269418	0.0730582	0
 8.72	0.9272356	0.0727644	0
 8.73	0.9275261	0.0724739	0
 8.74	0.9278130	0.0721870	0
 8.75	0.9280963	0.0719037	0
 8.76	0.9283758	0.0716242	0
 8.77	0.9286514	0.0713486	0
 8.78	0.9289231	0.0710769	0
 8.79	0.9291908	0.0708092	0
 8.80	0.9294543	0.0705457	0
 8.81	0.9297136	0.0702864	0
 8.82	0.9299686	0.0700314	0
 8.83	0.9302191	0.0697809	0
 8.84	0.9304652	0.0695348	0
 8.85	0.9307067	0.0692933	0
 8.86	0.9309436	0.0690564	0
 8.87	0.9311758	0.0688242	0
 8.88	0.9314032	0.0685968	0
 8.89	0.9316257	0.0683743	0
 8.90	0.9318433	0.0681567	0
 8.91	0.9320560	0.0679440	0
 8.92	0.9322637	0.0677363	0
 8.93	0.9324664	0.0675336	0
 8.94	0.9326638	0.0673362	0
 8.95	0.9328561	0.0671439	0
 8.96	0.9330432	0.0669568	0
 8.97	0.9332250	0.0667750	0
 8.98	0.9334016	0.0665984	0
 8.99	0.9335728	0.0664272	0
 9.00	0.9337387	0.0662613	0
 9.01	0.9339022	0.0660978	0
 9.02	0.9340601	0.0659399	0
 9.03	0.9342126	0.0657874	0
 9.04	0.9343597	0.0656403	0
 9.05	0.9345011	0.0654989	0
 9.06	0.9346371	0.0653629	0
 9.07	0.9347675	0.0652325	0
 9.08	0.9348923	0.0651077	0
 9.09	0.9350116	0.0649884	0
 9.10	0.9351254	0.0648746	0
 9.11	0.9352335	0.0647665	0
 9.12	0.9353362	0.0646638	0
 9.13	0.9354333	0.0645667	0
 9.14	0.9355249	0.0644751	0
 9.15	0.9356110	0.0643890	0
 9.16	0.9356916	0.0643084	0
 9.17	0.9357666	0.0642334	0
 9.18	0.9358363	0.0641637	0
 9.19	0.9359005	0.0640995	0
 9.20	0.9359592	0.0640408	0
 9.21	0.9360126	0.0639874	0
 9.22	0.9360608	0.0639392	0
 9.23	0.9361035	0.0638965	0
 9.24	0.9361411	0.0638589	0
 9.25	0.9361732	0.0638268	0
 9.26	0.9362003	0.0637997	0
 9.27	0.9362222	0.0637778	0
 9.28	0.9362389	0.0637611	0
 9.29	0.9362505	0.0637495	0
 9.30	0.9362572	0.0637428	0
 9.31	0.9362589	0.0637411	0
 9.32	0.9362557	0.0637443	0
 9.33	0.9362476	0.0637524	0
 9.34	0.9362347	0.0637653	0
 9.35	0.9362171	0.0637829	0
 9.36	0.9361948	0.0638052	0
 9.37	0.9361679	0.0638321	0
 9.38	0.9361364	0.0638636	0
 9.39	0.9361004	0.0638996	0
 9.40	0.9360600	0.0639400	0
 9.41	0.9360146	0.0639854	0
 9.42	0.9359647	0.0640353	0
 9.43	0.9359108	0.0640892	0
 9.44	0.9358527	0.0641473	0
 9.45	0.9357903	0.0642097	0
 9.46	0.9357241	0.0642759	0
 9.47	0.9356539	0.0643461	0
 9.48	0.9355798	0.0644202	0
 9.49	0.9355020	0.0644980	0
 9.50	0.9354204	0.0645796	0
 9.51	0.9353369	0.0646631	0
 9.52	0.9352498	0.0647502	0
 9.53	0.9351593	0.0648407	0
 9.54	0.9350653	0.0649347	0
 9.55	0.9349680	0.0650320	0
 9.56	0.9348674	0.0651326	0
 9.57	0.9347636	0.0652364	0
 9.58	0.9346568	0.0653432	0
 9.59	0.9345470	0.0654530	0
 9.60	0.9344344	0.0655656	0
 9.61	0.9343188	0.0656812	0
 9.62	0.9342006	0.0657994	0
 9.63	0.9340797	0.0659203	0
 9.64	0.9339563	0.0660437	0
 9.65	0.9338303	0.0661697	0
 9.66	0.9337021	0.0662979	0
 9.67	0.9335715	0.0664285	0
 9.68	0.9334387	0.0665613	0
 9.69	0.9333038	0.0666962	0
 9.70	0.9331670	0.0668330	0
 9.71	0.9330281	0.0669719	0
 9.72	0.9328874	0.0671126	0
 9.73	0.9327450	0.0672550	0
 9.74	0.9326009	0.0673991	0
 9.75	0.9324552	0.0675448	0
 9.76	0.9323080	0.0676920	0
 9.77	0.9321594	0.0678406	0
 9.78	0.9320095	0.0679905	0
 9.79	0.9318584	0.0681416	0
 9.80	0.9317061	0.0682939	0
 9.81	0.9315518	0.0684482	0
 9.82	0.9313966	0.0686034	0
 9.83	0.9312405	0.0687595	0
 9.84	0.9310835	0.0689165	0
 9.85	0.9309258	0.0690742	0
 9.86	0.9307675	0.0692325	0
 9.87	0.9306087	0.0693913	0
 9.88	0.9304494	0.0695506	0
 9.89	0.9302897	0.0697103	0
 9.90	0.9301296	0.0698704	0
 9.91	0.9299694	0.0700306	0
 9.92	0.9298090	0.0701910	0
 9.93	0.9296486	0.0703514	0
 9.94	0.9294882	0.0705118	0
 9.95	0.9293279	0.0706721	0
 9.96	0.9291676	0.0708324	0
 9.97	0.9290077	0.0709923	0
 9.98	0.9288481	0.0711519	0
 9.99	0.9286888	0.0713112	0
10.00	0.9285300	0.0714700	0
10.01	0.9283154	0.0716846	0
10.02	0.9281016	0.0718984	0
10.03	0.9278886	0.0721114	0
10.04	0.9276764	0.0723236	0
10.05	0.9274651	0.0725349	0
10.06	0.9272549	0.0727451	0
10.07	0.9270457	0.0729543	0
10.08	0.9268378	0.0731622	0
10.09	0.9266310	0.0733690	0
10.10	0.9264255	0.0735745	0
10.11	0.9261337	0.0738663	0
10.12	0.9258435	0.0741565	0
10.13	0.9255550	0.0744450	0
10.14	0.9252682	0.0747318	0
10.15	0.9249833	0.0750167	0
10.16	0.9247002	0.0752998	0
10.17	0.9244190	0.0755810	0
10.18	0.9241398	0.0758602	0
10.19	0.9238626	0.0761374	0
10.20	0.9235875	0.0764125	0
10.21	0.9233157	0.0766843	0
10.22	0.9230460	0.0769540	0
10.23	0.9227787	0.0772213	0
10.24	0.9225134	0.0774866	0
10.25	0.9222505	0.0777495	0
10.26	0.9219012	0.0780988	0
10.27	0.9215545	0.0784455	0
10.28	0.9212104	0.0787896	0
10.29	0.9208688	0.0791312	0
10.30	0.9205300	0.0794700	0
10.31	0.9201939	0.0798061	0
10.32	0.9198605	0.0801395	0
10.33	0.9195298	0.0804702	0
10.34	0.9192020	0.0807980	0
10.35	0.9188770	0.0811230	0
10.36	0.9185548	0.0814452	0
10.37	0.9182355	0.0817645	0
10.38	0.9179192	0.0820808	0
10.39	0.9176059	0.0823941	0
10.40	0.9172955	0.0827045	0
10.41	0.9169881	0.0830119	0
10.42	0.9166837	0.0833163	0
10.43	0.9163824	0.0836176	0
10.44	0.9160841	0.0839159	0
10.45	0.9157890	0.0842110	0
10.46	0.9154970	0.0845030	0
10.47	0.9152081	0.0847919	0
10.48	0.9149223	0.0850777	0
10.49	0.9146397	0.0853603	0
10.50	0.9143604	0.0856396	0
10.51	0.9140285	0.0859715	0
10.52	0.9137000	0.0863000	0
10.53	0.9133749	0.0866251	0
10.54	0.9130534	0.0869466	0
10.55	0.9127351	0.0872649	0
10.56	0.9124203	0.0875797	0
10.57	0.9121090	0.0878910	0
10.58	0.9118011	0.0881989	0
10.59	0.9114967	0.0885033	0
10.60	0.9111958	0.0888042	0
10.61	0.9108974	0.0891026	0
10.62	0.9106025	0.0893975	0
10.63	0.9103111	0.0896889	0
10.64	0.9100232	0.0899768	0
10.65	0.9097388	0.0902612	0
10.66	0.9094579	0.0905421	0
10.67	0.9091804	0.0908196	0
10.68	0.9089065	0.0910935	0
10.69	0.9086359	0.0913641	0
10.70	0.9083689	0.0916311	0
10.71	0.9081054	0.0918946	0
10.72	0.9078452	0.0921548	0
10.73	0.9075886	0.0924114	0
10.74	0.9073353	0.0926647	0
10.75	0.9070854	0.0929146	0
10.76	0.9068532	0.0931468	0
10.77	0.9066242	0.0933758	0
10.78	0.9063986	0.0936014	0
10.79	0.9061765	0.0938235	0
10.80	0.9059575	0.0940425	0
10.81	0.9057418	0.0942582	0
10.82	0.9055294	0.0944706	0
10.83	0.9053203	0.0946797	0
10.84	0.9051144	0.0948856	0
10.85	0.9049117	0.0950883	0
10.86	0.9047121	0.0952879	0
10.87	0.9045158	0.0954842	0
10.88	0.9043227	0.0956773	0
10.89	0.9041326	0.0958674	0
10.90	0.9039456	0.0960544	0
10.91	0.9037618	0.0962382	0
10.92	0.9035809	0.0964191	0
10.93	0.9034032	0.0965968	0
10.94	0.9032284	0.0967716	0
10.95	0.9030566	0.0969434	0
10.96	0.9028877	0.0971123	0
10.97	0.9027217	0.0972783	0
10.98	0.9025586	0.0974414	0
10.99	0.9023984	0.0976016	0
11.00	0.9022411	0.0977589	0
11.01	0.9021938	0.0978062	0
11.02	0.9021490	0.0978510	0
11.03	0.9021069	0.0978931	0
11.04	0.9020672	0.0979328	0
11.05	0.9020300	0.0979700	0
11.06	0.9019952	0.0980048	0
11.07	0.9019628	0.0980372	0
11.08	0.9019328	0.0980672	0
11.09	0.9019051	0.0980949	0
11.10	0.9018797	0.0981203	0
11.11	0.9018566	0.0981434	0
11.12	0.9018357	0.0981643	0
11.13	0.9018171	0.0981829	0
11.14	0.9018005	0.0981995	0
11.15	0.9017268	0.0982732	0
11.16	0.9016553	0.0983447	0
11.17	0.9015859	0.0984141	0
11.18	0.9015186	0.0984814	0
11.19	0.9014535	0.0985465	0
11.20	0.9013903	0.0986097	0
11.21	0.9013291	0.0986709	0
11.22	0.9012699	0.0987301	0
11.23	0.9012125	0.0987875	0
11.24	0.9011572	0.0988428	0
11.25	0.9011035	0.0988965	0
11.26	0.9012197	0.0987803	0
11.27	0.9013374	0.0986626	0
11.28	0.9014565	0.0985435	0
11.29	0.9015770	0.0984230	0
11.30	0.9016988	0.0983012	0
11.31	0.9018218	0.0981782	0
11.32	0.9019461	0.0980539	0
11.33	0.9020716	0.0979284	0
11.34	0.9021982	0.0978018	0
11.35	0.9023259	0.0976741	0
11.36	0.9024548	0.0975452	0
11.37	0.9025845	0.0974155	0
11.38	0.9027153	0.0972847	0
11.39	0.9028469	0.0971531	0
11.40	0.9029795	0.0970205	0
11.41	0.9031129	0.0968871	0
11.42	0.9032471	0.0967529	0
11.43	0.9033820	0.0966180	0
11.44	0.9035176	0.0964824	0
11.45	0.9036539	0.0963461	0
11.46	0.9037907	0.0962093	0
11.47	0.9039282	0.0960718	0
11.48	0.9040662	0.0959338	0
11.49	0.9042046	0.0957954	0
11.50	0.9043435	0.0956565	0
11.51	0.9044216	0.0955784	0
11.52	0.9045002	0.0954998	0
11.53	0.9045791	0.0954209	0
11.54	0.9046584	0.0953416	0
11.55	0.9047381	0.0952619	0
11.56	0.9048180	0.0951820	0
11.57	0.9048981	0.0951019	0
11.58	0.9049783	0.0950217	0
11.59	0.9050586	0.0949414	0
11.60	0.9051390	0.0948610	0
11.61	0.9052195	0.0947805	0
11.62	0.9052999	0.0947001	0
11.63	0.9053802	0.0946198	0
11.64	0.9054604	0.0945396	0
11.65	0.9055405	0.0944595	0
11.66	0.9056203	0.0943797	0
11.67	0.9056998	0.0943002	0
11.68	0.9057790	0.0942210	0
11.69	0.9058579	0.0941421	0
11.70	0.9059364	0.0940636	0
11.71	0.9060143	0.0939857	0
11.72	0.9060918	0.0939082	0
11.73	0.9061687	0.0938313	0
11.74	0.9062450	0.0937550	0
11.75	0.9063207	0.0936793	0
11.76	0.9063049	0.0936951	0
11.77	0.9062884	0.0937116	0
11.78	0.9062712	0.0937288	0
11.79	0.9062534	0.0937466	0
11.80	0.9062347	0.0937653	0
11.81	0.9062151	0.0937849	0
11.82	0.9061948	0.0938052	0
11.83	0.9061735	0.0938265	0
11.84	0.9061512	0.0938488	0
11.85	0.9061279	0.0938721	0
11.86	0.9061035	0.0938965	0
11.87	0.9060781	0.0939219	0
11.88	0.9060515	0.0939485	0
11.89	0.9060237	0.0939763	0
11.90	0.9059948	0.0940052	0
11.91	0.9059645	0.0940355	0
11.92	0.9059329	0.0940671	0
11.93	0.9058999	0.0941001	0
11.94	0.9058656	0.0941344	0
11.95	0.9058297	0.0941703	0
11.96	0.9057924	0.0942076	0
11.97	0.9057535	0.0942465	0
11.98	0.9057130	0.0942870	0
11.99	0.9056710	0.0943290	0
12.00	0.9056273	0.0943727	0
12.01	0.9056409	0.0943591	0
12.02	0.9056526	0.0943474	0
12.03	0.9056624	0.0943376	0
12.04	0.9056703	0.0943297	0
12.05	0.9056761	0.0943239	0
12.06	0.9056800	0.0943200	0
12.07	0.9056818	0.0943182	0
12.08	0.9056814	0.0943186	0
12.09	0.9056789	0.0943211	0
12.10	0.9056741	0.0943259	0
12.11	0.9056672	0.0943328	0
12.12	0.9056580	0.0943420	0
12.13	0.9056464	0.0943536	0
12.14	0.9056326	0.0943674	0
12.15	0.9056164	0.0943836	0
12.16	0.9055977	0.0944023	0
12.17	0.9055766	0.0944234	0
12.18	0.9055531	0.0944469	0
12.19	0.9055270	0.0944730	0
12.20	0.9054983	0.0945017	0
12.21	0.9054670	0.0945330	0
12.22	0.9054331	0.0945669	0
12.23	0.9053966	0.0946034	0
12.24	0.9053574	0.0946426	0
12.25	0.9053155	0.0946845	0
12.26	0.9053078	0.0946922	0
12.27	0.9052983	0.0947017	0
12.28	0.9052871	0.0947129	0
12.29	0.9052741	0.0947259	0
12.30	0.9052592	0.0947408	0
12.31	0.9052425	0.0947575	0
12.32	0.9052240	0.0947760	0
12.33	0.9052037	0.0947963	0
12.34	0.9051814	0.0948186	0
12.35	0.9051572	0.0948428	0
12.36	0.9051810	0.0948190	0
12.37	0.9052027	0.0947973	0
12.38	0.9052224	0.0947776	0
12.39	0.9052400	0.0947600	0
12.40	0.9052557	0.0947443	0
12.41	0.9052694	0.0947306	0
12.42	0.9052810	0.0947190	0
12.43	0.9052905	0.0947095	0
12.44	0.9052979	0.0947021	0
12.45	0.9053033	0.0946967	0
12.46	0.9053065	0.0946935	0
12.47	0.9053077	0.0946923	0
12.48	0.9053067	0.0946933	0
12.49	0.9053036	0.0946964	0
12.50	0.9052983	0.0947017	0
12.51	0.9053545	0.0946455	0
12.52	0.9054057	0.0945943	0
12.53	0.9054517	0.0945483	0
12.54	0.9054927	0.0945073	0
12.55	0.9055286	0.0944714	0
12.56	0.9055592	0.0944408	0
12.57	0.9055847	0.0944153	0
12.58	0.9056051	0.0943949	0
12.59	0.9056201	0.0943799	0
12.60	0.9056299	0.0943701	0
12.61	0.9056340	0.0943660	0
12.62	0.9056329	0.0943671	0
12.63	0.9056263	0.0943737	0
12.64	0.9056144	0.0943856	0
12.65	0.9055970	0.0944030	0
12.66	0.9055743	0.0944257	0
12.67	0.9055460	0.0944540	0
12.68	0.9055123	0.0944877	0
12.69	0.9054732	0.0945268	0
12.70	0.9054285	0.0945715	0
12.71	0.9053783	0.0946217	0
12.72	0.9053225	0.0946775	0
12.73	0.9052612	0.0947388	0
12.74	0.9051943	0.0948057	0
12.75	0.9051218	0.0948782	0
12.76	0.9051157	0.0948843	0
12.77	0.9051038	0.0948962	0
12.78	0.9050861	0.0949139	0
12.79	0.9050627	0.0949373	0
12.80	0.9050336	0.0949664	0
12.81	0.9049989	0.0950011	0
12.82	0.9049583	0.0950417	0
12.83	0.9049120	0.0950880	0
12.84	0.9048599	0.0951401	0
12.85	0.9048021	0.0951979	0
12.86	0.9047385	0.0952615	0
12.87	0.9046691	0.0953309	0
12.88	0.9045940	0.0954060	0
12.89	0.9045131	0.0954869	0
12.90	0.9044264	0.0955736	0
12.91	0.9043340	0.0956660	0
12.92	0.9042358	0.0957642	0
12.93	0.9041319	0.0958681	0
12.94	0.9040221	0.0959779	0
12.95	0.9039066	0.0960934	0
12.96	0.9037853	0.0962147	0
12.97	0.9036584	0.0963416	0
12.98	0.9035256	0.0964744	0
12.99	0.9033872	0.0966128	0
13.00	0.9032430	0.0967570	0
13.01	0.9030510	0.0969490	0
13.02	0.9028534	0.0971466	0
13.03	0.9026501	0.0973499	0
13.04	0.9024412	0.0975588	0
13.05	0.9022266	0.0977734	0
13.06	0.9020065	0.0979935	0
13.07	0.9017809	0.0982191	0
13.08	0.9015496	0.0984504	0
13.09	0.9013128	0.0986872	0
13.10	0.9010705	0.0989295	0
13.11	0.9007350	0.0992650	0
13.12	0.9003942	0.0996058	0
13.13	0.9000481	0.0999519	0
13.14	0.8996967	0.1003033	0
13.15	0.8993401	0.1006599	0
13.16	0.8989781	0.1010219	0
13.17	0.8986110	0.1013890	0
13.18	0.8982387	0.1017613	0
13.19	0.8978611	0.1021389	0
13.20	0.8974785	0.1025215	0
13.21	0.8969026	0.1030974	0
13.22	0.8963221	0.1036779	0
13.23	0.8957369	0.1042631	0
13.24	0.8951472	0.1048528	0
13.25	0.8945528	0.1054472	0
13.26	0.8939538	0.1060462	0
13.27	0.8933503	0.1066497	0
13.28	0.8927423	0.1072577	0
13.29	0.8921298	0.1078702	0
13.30	0.8915129	0.1084871	0
13.31	0.8908916	0.1091084	0
13.32	0.8902660	0.1097340	0
13.33	0.8896360	0.1103640	0
13.34	0.8890017	0.1109983	0
13.35	0.8883632	0.1116368	0
13.36	0.8877205	0.1122795	0
13.37	0.8870736	0.1129264	0
13.38	0.8864225	0.1135775	0
13.39	0.8857674	0.1142326	0
13.40	0.8851081	0.1148919	0
13.41	0.8844446	0.1155554	0
13.42	0.8837771	0.1162229	0
13.43	0.8831055	0.1168945	0
13.44	0.8824303	0.1175697	0
13.45	0.8817510	0.1182490	0
13.46	0.8810680	0.1189320	0
13.47	0.8803811	0.1196189	0
13.48	0.8796906	0.1203094	0
13.49	0.8789963	0.1210037	0
13.50	0.8782984	0.1217016	0
13.51	0.8776109	0.1223891	0
13.52	0.8769197	0.1230803	0
13.53	0.8762249	0.1237751	0
13.54	0.8755267	0.1244733	0
13.55	0.8748249	0.1251751	0
13.56	0.8741198	0.1258802	0
13.57	0.8734113	0.1265887	0
13.58	0.8726994	0.1273006	0
13.59	0.8719843	0.1280157	0
13.60	0.8712659	0.1287341	0
13.61	0.8707093	0.1292907	0
13.62	0.8701490	0.1298510	0
13.63	0.8695853	0.1304147	0
13.64	0.8690181	0.1309819	0
13.65	0.8684473	0.1315527	0
13.66	0.8678733	0.1321267	0
13.67	0.8672959	0.1327041	0
13.68	0.8667152	0.1332848	0
13.69	0.8661313	0.1338687	0
13.70	0.8655442	0.1344558	0
13.71	0.8650353	0.1349647	0
13.72	0.8645233	0.1354767	0
13.73	0.8640079	0.1359921	0
13.74	0.8634893	0.1365107	0
13.75	0.8629676	0.1370324	0
13.76	0.8624428	0.1375572	0
13.77	0.8619149	0.1380851	0
13.78	0.8613839	0.1386161	0
13.79	0.8608501	0.1391499	0
13.80	0.8603132	0.1396868	0
13.81	0.8589470	0.1410530	0
13.82	0.8575809	0.1424191	0
13.83	0.8562149	0.1437851	0
13.84	0.8548490	0.1451510	0
13.85	0.8534834	0.1465166	0
13.86	0.8521181	0.1478819	0
13.87	0.8507531	0.1492469	0
13.88	0.8493883	0.1506117	0
13.89	0.8480240	0.1519760	0
13.90	0.8466601	0.1533399	0
13.91	0.8452966	0.1547034	0
13.92	0.8439336	0.1560664	0
13.93	0.8425711	0.1574289	0
13.94	0.8412093	0.1587907	0
13.95	0.8398480	0.1601520	0
13.96	0.8384874	0.1615126	0
13.97	0.8371275	0.1628725	0
13.98	0.8357684	0.1642316	0
13.99	0.8344099	0.1655901	0
14.00	0.8330524	0.1669476	0
14.01	0.8310365	0.1689635	0
14.02	0.8290270	0.1709730	0
14.03	0.8270235	0.1729765	0
14.04	0.8250263	0.1749737	0
14.05	0.8230353	0.1769647	0
14.06	0.8210503	0.1789497	0
14.07	0.8190715	0.1809285	0
14.08	0.8170988	0.1829012	0
14.09	0.8151322	0.1848678	0
14.10	0.8131718	0.1868282	0
14.11	0.8112173	0.1887827	0
14.12	0.8092691	0.1907309	0
14.13	0.8073270	0.1926730	0
14.14	0.8053909	0.1946091	0
14.15	0.8034609	0.1965391	0
14.16	0.8015369	0.1984631	0
14.17	0.7996190	0.2003810	0
14.18	0.7977072	0.2022928	0
14.19	0.7958013	0.2041987	0
14.20	0.7939016	0.2060984	0
14.21	0.7920078	0.2079922	0
14.22	0.7901201	0.2098799	0
14.23	0.7882383	0.2117617	0
14.24	0.7863625	0.2136375	0
14.25	0.7844927	0.2155073	0
14.26	0.7826289	0.2173711	0
14.27	0.7807711	0.2192289	0
14.28	0.7789191	0.2210809	0
14.29	0.7770732	0.2229268	0
14.30	0.7752332	0.2247668	0
14.31	0.7733991	0.2266009	0
14.32	0.7715709	0.2284291	0
14.33	0.7697486	0.2302514	0
14.34	0.7679322	0.2320678	0
14.35	0.7661217	0.2338783	0
14.36	0.7643172	0.2356828	0
14.37	0.7625183	0.2374817	0
14.38	0.7607254	0.2392746	0
14.39	0.7589384	0.2410616	0
14.40	0.7571571	0.2428429	0
14.41	0.7553817	0.2446183	0
14.42	0.7536121	0.2463879	0
14.43	0.7518483	0.2481517	0
14.44	0.7500903	0.2499097	0
14.45	0.7483380	0.2516620	0
14.46	0.7465915	0.2534085	0
14.47	0.7448508	0.2551492	0
14.48	0.7431158	0.2568842	0
14.49	0.7413866	0.2586134	0
14.50	0.7396631	0.2603369	0
14.51	0.7379452	0.2620548	0
14.52	0.7362331	0.2637669	0
14.53	0.7345267	0.2654733	0
14.54	0.7328259	0.2671741	0
14.55	0.7311308	0.2688692	0
14.56	0.7294414	0.2705586	0
14.57	0.7277576	0.2722424	0
14.58	0.7260794	0.2739206	0
14.59	0.7244068	0.2755932	0
14.60	0.7227399	0.2772601	0
14.61	0.7210785	0.2789215	0
14.62	0.7194227	0.2805773	0
14.63	0.7177725	0.2822275	0
14.64	0.7161278	0.2838722	0
14.65	0.7144887	0.2855113	0
14.66	0.7128551	0.2871449	0
14.67	0.7112270	0.2887730	0
14.68	0.7096045	0.2903955	0
14.69	0.7079874	0.2920126	0
14.70	0.7063758	0.2936242	0
14.71	0.7047697	0.2952303	0
14.72	0.7031690	0.2968310	0
14.73	0.7015738	0.2984262	0
14.74	0.6999840	0.3000160	0
14.75	0.6983997	0.3016003	0
14.76	0.6968207	0.3031793	0
14.77	0.6952471	0.3047529	0
14.78	0.6936789	0.3063211	0
14.79	0.6921160	0.3078840	0
14.80	0.6905585	0.3094415	0
14.81	0.6890064	0.3109936	0
14.82	0.6874596	0.3125404	0
14.83	0.6859181	0.3140819	0
14.84	0.6843819	0.3156181	0
14.85	0.6828510	0.3171490	0
14.86	0.6813253	0.3186747	0
14.87	0.6798049	0.3201951	0
14.88	0.6782898	0.3217102	0
14.89	0.6767799	0.3232201	0
14.90	0.6752752	0.3247248	0
14.91	0.6737756	0.3262244	0
14.92	0.6722814	0.3277186	0
14.93	0.6707923	0.3292077	0
14.94	0.6693084	0.3306916	0
14.95	0.6678296	0.3321704	0
14.96	0.6663559	0.3336441	0
14.97	0.6648874	0.3351126	0
14.98	0.6634239	0.3365761	0
14.99	0.6619656	0.3380344	0
15.00	0.6605123	0.3394877	0
15.01	0.6590477	0.3409523	0
15.02	0.6575882	0.3424118	0
15.03	0.6561338	0.3438662	0
15.04	0.6546844	0.3453156	0
15.05	0.6532403	0.3467597	0
15.06	0.6518011	0.3481989	0
15.07	0.6503671	0.3496329	0
15.08	0.6489380	0.3510620	0
15.09	0.6475140	0.3524860	0
15.10	0.6460950	0.3539050	0
15.11	0.6446809	0.3553191	0
15.12	0.6432719	0.3567281	0
15.13	0.6418679	0.3581321	0
15.14	0.6404688	0.3595312	0
15.15	0.6390746	0.3609254	0
15.16	0.6376854	0.3623146	0
15.17	0.6363010	0.3636990	0
15.18	0.6349216	0.3650784	0
15.19	0.6335471	0.3664529	0
15.20	0.6321774	0.3678226	0
15.21	0.6308125	0.3691875	0
15.22	0.6294525	0.3705475	0
15.23	0.6280973	0.3719027	0
15.24	0.6267470	0.3732530	0
15.25	0.6254014	0.3745986	0
15.26	0.6240606	0.3759394	0
15.27	0.6227246	0.3772754	0
15.28	0.6213933	0.3786067	0
15.29	0.6200668	0.3799332	0
15.30	0.6187449	0.3812551	0
15.31	0.6174277	0.3825723	0
15.32	0.6161153	0.3838847	0
15.33	0.6148075	0.3851925	0
15.34	0.6135045	0.3864955	0
15.35	0.6122060	0.3877940	0
15.36	0.6109121	0.3890879	0
15.37	0.6096230	0.3903770	0
15.38	0.6083384	0.3916616	0
15.39	0.6070583	0.3929417	0
15.40	0.6057829	0.3942171	0
15.41	0.6045120	0.3954880	0
15.42	0.6032456	0.3967544	0
15.43	0.6019837	0.3980163	0
15.44	0.6007264	0.3992736	0
15.45	0.5994736	0.4005264	0
15.46	0.5982253	0.4017747	0
15.47	0.5969814	0.4030186	0
15.48	0.5957420	0.4042580	0
15.49	0.5945070	0.4054930	0
15.50	0.5932764	0.4067236	0
15.51	0.5920503	0.4079497	0
15.52	0.5908286	0.4091714	0
15.53	0.5896112	0.4103888	0
15.54	0.5883982	0.4116018	0
15.55	0.5871896	0.4128104	0
15.56	0.5859853	0.4140147	0
15.57	0.5847852	0.4152148	0
15.58	0.5835896	0.4164104	0
15.59	0.5823982	0.4176018	0
15.60	0.5812111	0.4187889	0
15.61	0.5800282	0.4199718	0
15.62	0.5788496	0.4211504	0
15.63	0.5776753	0.4223247	0
15.64	0.5765051	0.4234949	0
15.65	0.5753392	0.4246608	0
15.66	0.5741774	0.4258226	0
15.67	0.5730199	0.4269801	0
15.68	0.5718665	0.4281335	0
15.69	0.5707172	0.4292828	0
15.70	0.5695721	0.4304279	0
15.71	0.5684311	0.4315689	0
15.72	0.5672942	0.4327058	0
15.73	0.5661615	0.4338385	0
15.74	0.5650327	0.4349673	0
15.75	0.5639080	0.4360920	0
15.76	0.5627875	0.4372125	0
15.77	0.5616709	0.4383291	0
15.78	0.5605583	0.4394417	0
15.79	0.5594498	0.4405502	0
15.80	0.5583452	0.4416548	0
15.81	0.5572446	0.4427554	0
15.82	0.5561480	0.4438520	0
15.83	0.5550553	0.4449447	0
15.84	0.5539666	0.4460334	0
15.85	0.5528819	0.4471181	0
15.86	0.5518009	0.4481991	0
15.87	0.5507239	0.4492761	0
15.88	0.5496508	0.4503492	0
15.89	0.5485815	0.4514185	0
15.90	0.5475161	0.4524839	0
15.91	0.5464545	0.4535455	0
15.92	0.5453968	0.4546032	0
15.93	0.5443429	0.4556571	0
15.94	0.5432927	0.4567073	0
15.95	0.5422463	0.4577537	0
15.96	0.5412038	0.4587962	0
15.97	0.5401649	0.4598351	0
15.98	0.5391299	0.4608701	0
15.99	0.5380985	0.4619015	0
16.00	0.5370709	0.4629291	0
16.01	0.5360469	0.4639531	0
16.02	0.5350266	0.4649734	0
16.03	0.5340100	0.4659900	0
16.04	0.5329971	0.4670029	0
16.05	0.5319878	0.4680122	0
16.06	0.5309822	0.4690178	0
16.07	0.5299802	0.4700198	0
16.08	0.5289817	0.4710183	0
16.09	0.5279869	0.4720131	0
16.10	0.5269957	0.4730043	0
16.11	0.5260080	0.4739920	0
16.12	0.5250239	0.4749761	0
16.13	0.5240433	0.4759567	0
16.14	0.5230662	0.4769338	0
16.15	0.5220927	0.4779073	0
16.16	0.5211226	0.4788774	0
16.17	0.5201561	0.4798439	0
16.18	0.5191930	0.4808070	0
16.19	0.5182334	0.4817666	0
16.20	0.5172772	0.4827228	0
16.21	0.5133938	0.4866062	0
16.22	0.5095448	0.4904552	0
16.23	0.5057301	0.4942699	0
16.24	0.5019496	0.4980504	0
16.25	0.4982027	0.5017973	0
16.26	0.4944891	0.5055109	0
16.27	0.4908086	0.5091914	0
16.28	0.4871606	0.5128394	0
16.29	0.4835450	0.5164550	0
16.30	0.4799615	0.5200385	0
16.31	0.4764096	0.5235904	0
16.32	0.4728890	0.5271110	0
16.33	0.4693995	0.5306005	0
16.34	0.4659408	0.5340592	0
16.35	0.4625124	0.5374876	0
16.36	0.4591142	0.5408858	0
16.37	0.4557457	0.5442543	0
16.38	0.4524068	0.5475932	0
16.39	0.4490971	0.5509029	0
16.40	0.4458163	0.5541837	0
16.41	0.4425642	0.5574358	0
16.42	0.4393403	0.5606597	0
16.43	0.4361446	0.5638554	0
16.44	0.4329766	0.5670234	0
16.45	0.4298362	0.5701638	0
16.46	0.4267229	0.5732771	0
16.47	0.4236366	0.5763634	0
16.48	0.4205771	0.5794229	0
16.49	0.4175439	0.5824561	0
16.50	0.4145370	0.5854630	0
16.51	0.4115559	0.5884441	0
16.52	0.4086005	0.5913995	0
16.53	0.4056704	0.5943296	0
16.54	0.4027656	0.5972344	0
16.55	0.3998856	0.6001144	0
16.56	0.3970303	0.6029697	0
16.57	0.3941994	0.6058006	0
16.58	0.3913926	0.6086074	0
16.59	0.3886098	0.6113902	0
16.60	0.3858508	0.6141492	0
16.61	0.3831152	0.6168848	0
16.62	0.3804028	0.6195972	0
16.63	0.3777134	0.6222866	0
16.64	0.3750469	0.6249531	0
16.65	0.3724029	0.6275971	0
16.66	0.3697813	0.6302187	0
16.67	0.3671817	0.6328183	0
16.68	0.3646042	0.6353958	0
16.69	0.3620483	0.6379517	0
16.70	0.3595139	0.6404861	0
16.71	0.3570008	0.6429992	0
16.72	0.3545089	0.6454911	0
16.73	0.3520377	0.6479623	0
16.74	0.3495872	0.6504128	0
16.75	0.3471573	0.6528427	0
16.76	0.3447477	0.6552523	0
16.77	0.3423581	0.6576419	0
16.78	0.3399884	0.6600116	0
16.79	0.3376384	0.6623616	0
16.80	0.3353080	0.6646920	0
16.81	0.3329968	0.6670032	0
16.82	0.3307048	0.6692952	0
16.83	0.3284318	0.6715682	0
16.84	0.3261776	0.6738224	0
16.85	0.3239420	0.6760580	0
16.86	0.3217248	0.6782752	0
16.87	0.3195259	0.6804741	0
16.88	0.3173450	0.6826550	0
16.89	0.3151821	0.6848179	0
16.90	0.3130369	0.6869631	0
16.91	0.3109092	0.6890908	0
16.92	0.3087991	0.6912009	0
16.93	0.3067061	0.6932939	0
16.94	0.3046302	0.6953698	0
16.95	0.3025712	0.6974288	0
16.96	0.3005291	0.6994709	0
16.97	0.2985035	0.7014965	0
16.98	0.2964943	0.7035057	0
16.99	0.2945015	0.7054985	0
17.00	0.2925248	0.7074752	0
17.01	0.2905641	0.7094359	0
17.02	0.2886193	0.7113807	0
17.03	0.2866901	0.7133099	0
17.04	0.2847765	0.7152235	0
17.05	0.2828783	0.7171217	0
17.06	0.2809954	0.7190046	0
17.07	0.2791276	0.7208724	0
17.08	0.2772747	0.7227253	0
17.09	0.2754368	0.7245632	0
17.10	0.2736135	0.7263865	0
17.11	0.2718048	0.7281952	0
17.12	0.2700105	0.7299895	0
17.13	0.2682306	0.7317694	0
17.14	0.2664648	0.7335352	0
17.15	0.2647131	0.7352869	0
17.16	0.2629753	0.7370247	0
17.17	0.2612512	0.7387488	0
17.18	0.2595409	0.7404591	0
17.19	0.2578440	0.7421560	0
17.20	0.2561606	0.7438394	0
17.21	0.2544904	0.7455096	0
17.22	0.2528335	0.7471665	0
17.23	0.2511896	0.7488104	0
17.24	0.2495586	0.7504414	0
17.25	0.2479404	0.7520596	0
17.26	0.2463349	0.7536651	0
17.27	0.2447420	0.7552580	0
17.28	0.2431616	0.7568384	0
17.29	0.2415936	0.7584064	0
17.30	0.2400377	0.7599623	0
17.31	0.2384940	0.7615060	0
17.32	0.2369624	0.7630376	0
17.33	0.2354426	0.7645574	0
17.34	0.2339347	0.7660653	0
17.35	0.2324384	0.7675616	0
17.36	0.2309538	0.7690462	0
17.37	0.2294806	0.7705194	0
17.38	0.2280189	0.7719811	0
17.39	0.2265684	0.7734316	0
17.40	0.2251292	0.7748708	0
17.41	0.2237010	0.7762990	0
17.42	0.2222838	0.7777162	0
17.43	0.2208775	0.7791225	0
17.44	0.2194820	0.7805180	0
17.45	0.2180972	0.7819028	0
17.46	0.2167229	0.7832771	0
17.47	0.2153592	0.7846408	0
17.48	0.2140060	0.7859940	0
17.49	0.2126630	0.7873370	0
17.50	0.2113303	0.7886697	0
17.51	0.2100077	0.7899923	0
17.52	0.2086952	0.7913048	0
17.53	0.2073927	0.7926073	0
17.54	0.2061000	0.7939000	0
17.55	0.2048171	0.7951829	0
17.56	0.2035440	0.7964560	0
17.57	0.2022804	0.7977196	0
17.58	0.2010264	0.7989736	0
17.59	0.1997818	0.8002182	0
17.60	0.1985466	0.8014534	0
17.61	0.1973207	0.8026793	0
17.62	0.1961040	0.8038960	0
17.63	0.1948965	0.8051035	0
17.64	0.1936980	0.8063020	0
17.65	0.1925084	0.8074916	0
17.66	0.1913278	0.8086722	0
17.67	0.1901559	0.8098441	0
17.68	0.1889928	0.8110072	0
17.69	0.1878384	0.8121616	0
17.70	0.1866926	0.8133074	0
17.71	0.1855552	0.8144448	0
17.72	0.1844263	0.8155737	0
17.73	0.1833058	0.8166942	0
17.74	0.1821936	0.8178064	0
17.75	0.1810896	0.8189104	0
17.76	0.1799938	0.8200062	0
17.77	0.1789060	0.8210940	0
17.78	0.1778263	0.8221737	0
17.79	0.1767545	0.8232455	0
17.80	0.1756906	0.8243094	0
17.81	0.1746345	0.8253655	0
17.82	0.1735861	0.8264139	0
17.83	0.1725454	0.8274546	0
17.84	0.1715123	0.8284877	0
17.85	0.1704868	0.8295132	0
17.86	0.1694688	0.8305312	0
17.87	0.1684582	0.8315418	0
17.88	0.1674549	0.8325451	0
17.89	0.1664590	0.8335410	0
17.90	0.1654703	0.8345297	0
17.91	0.1644887	0.8355113	0
17.92	0.1635143	0.8364857	0
17.93	0.1625469	0.8374531	0
17.94	0.1615865	0.8384135	0
17.95	0.1606331	0.8393669	0
17.96	0.1596865	0.8403135	0
17.97	0.1587468	0.8412532	0
17.98	0.1578138	0.8421862	0
17.99	0.1568875	0.8431125	0
18.00	0.1559679	0.8440321	0
18.01	0.1551737	0.8448263	0
18.02	0.1543846	0.8456154	0
18.03	0.1536006	0.8463994	0
18.04	0.1528216	0.8471784	0
18.05	0.1520476	0.8479524	0
18.06	0.1512785	0.8487215	0
18.07	0.1505143	0.8494857	0
18.08	0.1497550	0.8502450	0
18.09	0.1490005	0.8509995	0
18.10	0.1482508	0.8517492	0
18.11	0.1475059	0.8524941	0
18.12	0.1467657	0.8532343	0
18.13	0.1460302	0.8539698	0
18.14	0.1452993	0.8547007	0
18.15	0.1445731	0.8554269	0
18.16	0.1438514	0.8561486	0
18.17	0.1431343	0.8568657	0
18.18	0.1424217	0.8575783	0
18.19	0.1417135	0.8582865	0
18.20	0.1410099	0.8589901	0
18.21	0.1393526	0.8606474	0
18.22	0.1377168	0.8622832	0
18.23	0.1361021	0.8638979	0
18.24	0.1345083	0.8654917	0
18.25	0.1329351	0.8670649	0
18.26	0.1313821	0.8686179	0
18.27	0.1298490	0.8701510	0
18.28	0.1283357	0.8716643	0
18.29	0.1268418	0.8731582	0
18.30	0.1253671	0.8746329	0
18.31	0.1239112	0.8760888	0
18.32	0.1224740	0.8775260	0
18.33	0.1210551	0.8789449	0
18.34	0.1196543	0.8803457	0
18.35	0.1182714	0.8817286	0
18.36	0.1169061	0.8830939	0
18.37	0.1155581	0.8844419	0
18.38	0.1142273	0.8857727	0
18.39	0.1129134	0.8870866	0
18.40	0.1116161	0.8883839	0
18.41	0.1103352	0.8896648	0
18.42	0.1090705	0.8909295	0
18.43	0.1078218	0.8921782	0
18.44	0.1065889	0.8934111	0
18.45	0.1053714	0.8946286	0
18.46	0.1041693	0.8958307	0
18.47	0.1029824	0.8970176	0
18.48	0.1018103	0.8981897	0
18.49	0.1006529	0.8993471	0
18.50	0.0995100	0.9004900	0
18.51	0.0983814	0.9016186	0
18.52	0.0972670	0.9027330	0
18.53	0.0961664	0.9038336	0
18.54	0.0950796	0.9049204	0
18.55	0.0940063	0.9059937	0
18.56	0.0929463	0.9070537	0
18.57	0.0918996	0.9081004	0
18.58	0.0908658	0.9091342	0
18.59	0.0898449	0.9101551	0
18.60	0.0888366	0.9111634	0
18.61	0.0878407	0.9121593	0
18.62	0.0868572	0.9131428	0
18.63	0.0858858	0.9141142	0
18.64	0.0849264	0.9150736	0
18.65	0.0839789	0.9160211	0
18.66	0.0830429	0.9169571	0
18.67	0.0821185	0.9178815	0
18.68	0.0812055	0.9187945	0
18.69	0.0803036	0.9196964	0
18.70	0.0794128	0.9205872	0
18.71	0.0785328	0.9214672	0
18.72	0.0776637	0.9223363	0
18.73	0.0768051	0.9231949	0
18.74	0.0759570	0.9240430	0
18.75	0.0751193	0.9248807	0
18.76	0.0742917	0.9257083	0
18.77	0.0734742	0.9265258	0
18.78	0.0726666	0.9273334	0
18.79	0.0718688	0.9281312	0
18.80	0.0710807	0.9289193	0
18.81	0.0703021	0.9296979	0
18.82	0.0695330	0.9304670	0
18.83	0.0687731	0.9312269	0
18.84	0.0680224	0.9319776	0
18.85	0.0672807	0.9327193	0
18.86	0.0665480	0.9334520	0
18.87	0.0658240	0.9341760	0
18.88	0.0651088	0.9348912	0
18.89	0.0644021	0.9355979	0
18.90	0.0637039	0.9362961	0
18.91	0.0630141	0.9369859	0
18.92	0.0623325	0.9376675	0
18.93	0.0616590	0.9383410	0
18.94	0.0609936	0.9390064	0
18.95	0.0603361	0.9396639	0
18.96	0.0596864	0.9403136	0
18.97	0.0590445	0.9409555	0
18.98	0.0584102	0.9415898	0
18.99	0.0577834	0.9422166	0
19.00	0.0571640	0.9428360	0
