# author : Oliver Czoske
# source : E-SPE-NOVA-MET-1049_3-0 (METIS transmission budget)
# date_created : 2020-02-28
# date_modified : 2020-04-13
# status : version 3.0
# type : mirror:reflection
# wavelength_unit : um
# description : Gold
# comment : extracted from excel sheet "CFO only"
#
wavelength	reflection
 0.50	0.4958321
 0.51	0.5688724
 0.52	0.6411546
 0.53	0.7109306
 0.54	0.7768270
 0.55	0.8378780
 0.56	0.8599011
 0.57	0.8796124
 0.58	0.8972450
 0.59	0.9130151
 0.60	0.9271201
 0.61	0.9343899
 0.62	0.9410157
 0.63	0.9470614
 0.64	0.9525841
 0.65	0.9576347
 0.66	0.9607107
 0.67	0.9635607
 0.68	0.9662043
 0.69	0.9686591
 0.70	0.9709410
 0.71	0.9724138
 0.72	0.9737972
 0.73	0.9750976
 0.74	0.9763212
 0.75	0.9774737
 0.76	0.9782845
 0.77	0.9790544
 0.78	0.9797858
 0.79	0.9804813
 0.80	0.9811431
 0.81	0.9815806
 0.82	0.9820006
 0.83	0.9824041
 0.84	0.9827921
 0.85	0.9831653
 0.86	0.9834616
 0.87	0.9837483
 0.88	0.9840258
 0.89	0.9842944
 0.90	0.9845547
 0.91	0.9847552
 0.92	0.9849506
 0.93	0.9851413
 0.94	0.9853273
 0.95	0.9855088
 0.96	0.9856420
 0.97	0.9857732
 0.98	0.9859022
 0.99	0.9860293
 1.00	0.9861543
 1.01	0.9862193
 1.02	0.9862848
 1.03	0.9863508
 1.04	0.9864171
 1.05	0.9864838
 1.06	0.9865508
 1.07	0.9866179
 1.08	0.9866852
 1.09	0.9867526
 1.10	0.9868200
 1.11	0.9868874
 1.12	0.9869548
 1.13	0.9870221
 1.14	0.9870893
 1.15	0.9871563
 1.16	0.9872232
 1.17	0.9872899
 1.18	0.9873563
 1.19	0.9874225
 1.20	0.9874885
 1.21	0.9875541
 1.22	0.9876195
 1.23	0.9876845
 1.24	0.9877492
 1.25	0.9878136
 1.26	0.9878390
 1.27	0.9878652
 1.28	0.9878922
 1.29	0.9879199
 1.30	0.9879482
 1.31	0.9879771
 1.32	0.9880066
 1.33	0.9880367
 1.34	0.9880672
 1.35	0.9880983
 1.36	0.9881297
 1.37	0.9881616
 1.38	0.9881938
 1.39	0.9882264
 1.40	0.9882594
 1.41	0.9882926
 1.42	0.9883261
 1.43	0.9883598
 1.44	0.9883938
 1.45	0.9884280
 1.46	0.9884624
 1.47	0.9884970
 1.48	0.9885318
 1.49	0.9885666
 1.50	0.9886017
 1.51	0.9886172
 1.52	0.9886334
 1.53	0.9886501
 1.54	0.9886672
 1.55	0.9886849
 1.56	0.9887030
 1.57	0.9887216
 1.58	0.9887406
 1.59	0.9887600
 1.60	0.9887798
 1.61	0.9887999
 1.62	0.9888204
 1.63	0.9888412
 1.64	0.9888623
 1.65	0.9888837
 1.66	0.9889054
 1.67	0.9889274
 1.68	0.9889496
 1.69	0.9889720
 1.70	0.9889947
 1.71	0.9890176
 1.72	0.9890407
 1.73	0.9890640
 1.74	0.9890875
 1.75	0.9891111
 1.76	0.9891144
 1.77	0.9891183
 1.78	0.9891228
 1.79	0.9891278
 1.80	0.9891333
 1.81	0.9891393
 1.82	0.9891459
 1.83	0.9891529
 1.84	0.9891603
 1.85	0.9891682
 1.86	0.9891766
 1.87	0.9891853
 1.88	0.9891945
 1.89	0.9892040
 1.90	0.9892139
 1.91	0.9892242
 1.92	0.9892348
 1.93	0.9892458
 1.94	0.9892570
 1.95	0.9892686
 1.96	0.9892805
 1.97	0.9892927
 1.98	0.9893052
 1.99	0.9893179
 2.00	0.9893309
 2.01	0.9893306
 2.02	0.9893309
 2.03	0.9893318
 2.04	0.9893332
 2.05	0.9893351
 2.06	0.9893375
 2.07	0.9893404
 2.08	0.9893437
 2.09	0.9893476
 2.10	0.9893518
 2.11	0.9893565
 2.12	0.9893616
 2.13	0.9893671
 2.14	0.9893730
 2.15	0.9893793
 2.16	0.9893859
 2.17	0.9893929
 2.18	0.9894003
 2.19	0.9894079
 2.20	0.9894159
 2.21	0.9894242
 2.22	0.9894329
 2.23	0.9894418
 2.24	0.9894510
 2.25	0.9894604
 2.26	0.9894681
 2.27	0.9894680
 2.28	0.9894684
 2.29	0.9894692
 2.30	0.9894703
 2.31	0.9894719
 2.32	0.9894738
 2.33	0.9894762
 2.34	0.9894789
 2.35	0.9894819
 2.36	0.9894853
 2.37	0.9894890
 2.38	0.9894930
 2.39	0.9894974
 2.40	0.9895021
 2.41	0.9895070
 2.42	0.9895123
 2.43	0.9895179
 2.44	0.9895237
 2.45	0.9895298
 2.46	0.9895361
 2.47	0.9895427
 2.48	0.9895496
 2.49	0.9895567
 2.50	0.9895640
 2.51	0.9895652
 2.52	0.9895651
 2.53	0.9895653
 2.54	0.9895659
 2.55	0.9895667
 2.56	0.9895679
 2.57	0.9895694
 2.58	0.9895712
 2.59	0.9895733
 2.60	0.9895757
 2.61	0.9895783
 2.62	0.9895812
 2.63	0.9895844
 2.64	0.9895878
 2.65	0.9895915
 2.66	0.9895955
 2.67	0.9895996
 2.68	0.9896040
 2.69	0.9896087
 2.70	0.9896135
 2.71	0.9896186
 2.72	0.9896239
 2.73	0.9896294
 2.74	0.9896351
 2.75	0.9896383
 2.76	0.9896377
 2.77	0.9896374
 2.78	0.9896374
 2.79	0.9896376
 2.80	0.9896382
 2.81	0.9896390
 2.82	0.9896400
 2.83	0.9896413
 2.84	0.9896428
 2.85	0.9896446
 2.86	0.9896466
 2.87	0.9896488
 2.88	0.9896512
 2.89	0.9896539
 2.90	0.9896568
 2.91	0.9896599
 2.92	0.9896631
 2.93	0.9896666
 2.94	0.9896703
 2.95	0.9896742
 2.96	0.9896783
 2.97	0.9896825
 2.98	0.9896869
 2.99	0.9896915
 3.00	0.9896963
 3.01	0.9896964
 3.02	0.9896963
 3.03	0.9896963
 3.04	0.9896966
 3.05	0.9896972
 3.06	0.9896979
 3.07	0.9896988
 3.08	0.9897000
 3.09	0.9897014
 3.10	0.9897029
 3.11	0.9897047
 3.12	0.9897066
 3.13	0.9897088
 3.14	0.9897111
 3.15	0.9897136
 3.16	0.9897163
 3.17	0.9897192
 3.18	0.9897222
 3.19	0.9897254
 3.20	0.9897288
 3.21	0.9897323
 3.22	0.9897360
 3.23	0.9897398
 3.24	0.9897438
 3.25	0.9897480
 3.26	0.9897507
 3.27	0.9897498
 3.28	0.9897491
 3.29	0.9897487
 3.30	0.9897484
 3.31	0.9897483
 3.32	0.9897484
 3.33	0.9897487
 3.34	0.9897492
 3.35	0.9897498
 3.36	0.9897506
 3.37	0.9897516
 3.38	0.9897528
 3.39	0.9897541
 3.40	0.9897556
 3.41	0.9897572
 3.42	0.9897590
 3.43	0.9897610
 3.44	0.9897630
 3.45	0.9897653
 3.46	0.9897677
 3.47	0.9897702
 3.48	0.9897729
 3.49	0.9897757
 3.50	0.9897786
 3.51	0.9897791
 3.52	0.9897787
 3.53	0.9897784
 3.54	0.9897783
 3.55	0.9897784
 3.56	0.9897786
 3.57	0.9897790
 3.58	0.9897796
 3.59	0.9897802
 3.60	0.9897811
 3.61	0.9897821
 3.62	0.9897832
 3.63	0.9897845
 3.64	0.9897859
 3.65	0.9897875
 3.66	0.9897892
 3.67	0.9897910
 3.68	0.9897929
 3.69	0.9897950
 3.70	0.9897972
 3.71	0.9897996
 3.72	0.9898020
 3.73	0.9898046
 3.74	0.9898073
 3.75	0.9898088
 3.76	0.9898085
 3.77	0.9898083
 3.78	0.9898083
 3.79	0.9898084
 3.80	0.9898086
 3.81	0.9898090
 3.82	0.9898095
 3.83	0.9898102
 3.84	0.9898110
 3.85	0.9898119
 3.86	0.9898129
 3.87	0.9898141
 3.88	0.9898154
 3.89	0.9898168
 3.90	0.9898183
 3.91	0.9898199
 3.92	0.9898217
 3.93	0.9898235
 3.94	0.9898255
 3.95	0.9898276
 3.96	0.9898298
 3.97	0.9898321
 3.98	0.9898345
 3.99	0.9898370
 4.00	0.9898396
 4.01	0.9898396
 4.02	0.9898394
 4.03	0.9898393
 4.04	0.9898394
 4.05	0.9898396
 4.06	0.9898399
 4.07	0.9898403
 4.08	0.9898408
 4.09	0.9898415
 4.10	0.9898423
 4.11	0.9898431
 4.12	0.9898441
 4.13	0.9898452
 4.14	0.9898464
 4.15	0.9898477
 4.16	0.9898492
 4.17	0.9898507
 4.18	0.9898523
 4.19	0.9898540
 4.20	0.9898558
 4.21	0.9898577
 4.22	0.9898597
 4.23	0.9898618
 4.24	0.9898630
 4.25	0.9898628
 4.26	0.9898627
 4.27	0.9898627
 4.28	0.9898629
 4.29	0.9898631
 4.30	0.9898635
 4.31	0.9898639
 4.32	0.9898645
 4.33	0.9898652
 4.34	0.9898659
 4.35	0.9898668
 4.36	0.9898677
 4.37	0.9898688
 4.38	0.9898699
 4.39	0.9898712
 4.40	0.9898725
 4.41	0.9898739
 4.42	0.9898754
 4.43	0.9898770
 4.44	0.9898787
 4.45	0.9898805
 4.46	0.9898823
 4.47	0.9898843
 4.48	0.9898863
 4.49	0.9898884
 4.50	0.9898906
 4.51	0.9898895
 4.52	0.9898881
 4.53	0.9898869
 4.54	0.9898857
 4.55	0.9898847
 4.56	0.9898838
 4.57	0.9898829
 4.58	0.9898822
 4.59	0.9898815
 4.60	0.9898810
 4.61	0.9898806
 4.62	0.9898802
 4.63	0.9898800
 4.64	0.9898798
 4.65	0.9898797
 4.66	0.9898798
 4.67	0.9898799
 4.68	0.9898801
 4.69	0.9898804
 4.70	0.9898808
 4.71	0.9898812
 4.72	0.9898818
 4.73	0.9898824
 4.74	0.9898831
 4.75	0.9898839
 4.76	0.9898848
 4.77	0.9898858
 4.78	0.9898868
 4.79	0.9898879
 4.80	0.9898891
 4.81	0.9898904
 4.82	0.9898917
 4.83	0.9898931
 4.84	0.9898946
 4.85	0.9898962
 4.86	0.9898978
 4.87	0.9898995
 4.88	0.9899013
 4.89	0.9899031
 4.90	0.9899050
 4.91	0.9899070
 4.92	0.9899090
 4.93	0.9899111
 4.94	0.9899133
 4.95	0.9899155
 4.96	0.9899178
 4.97	0.9899201
 4.98	0.9899225
 4.99	0.9899250
 5.00	0.9899275
 5.01	0.9899301
 5.02	0.9899328
 5.03	0.9899333
 5.04	0.9899325
 5.05	0.9899318
 5.06	0.9899312
 5.07	0.9899307
 5.08	0.9899302
 5.09	0.9899299
 5.10	0.9899296
 5.11	0.9899293
 5.12	0.9899292
 5.13	0.9899291
 5.14	0.9899291
 5.15	0.9899292
 5.16	0.9899293
 5.17	0.9899296
 5.18	0.9899298
 5.19	0.9899302
 5.20	0.9899306
 5.21	0.9899311
 5.22	0.9899317
 5.23	0.9899323
 5.24	0.9899330
 5.25	0.9899337
 5.26	0.9899346
 5.27	0.9899355
 5.28	0.9899364
 5.29	0.9899374
 5.30	0.9899385
 5.31	0.9899396
 5.32	0.9899408
 5.33	0.9899421
 5.34	0.9899434
 5.35	0.9899447
 5.36	0.9899462
 5.37	0.9899476
 5.38	0.9899492
 5.39	0.9899508
 5.40	0.9899524
 5.41	0.9899541
 5.42	0.9899559
 5.43	0.9899577
 5.44	0.9899595
 5.45	0.9899614
 5.46	0.9899634
 5.47	0.9899654
 5.48	0.9899675
 5.49	0.9899696
 5.50	0.9899697
 5.51	0.9899691
 5.52	0.9899685
 5.53	0.9899680
 5.54	0.9899675
 5.55	0.9899672
 5.56	0.9899668
 5.57	0.9899666
 5.58	0.9899664
 5.59	0.9899663
 5.60	0.9899662
 5.61	0.9899662
 5.62	0.9899662
 5.63	0.9899663
 5.64	0.9899665
 5.65	0.9899668
 5.66	0.9899670
 5.67	0.9899674
 5.68	0.9899678
 5.69	0.9899683
 5.70	0.9899688
 5.71	0.9899694
 5.72	0.9899700
 5.73	0.9899707
 5.74	0.9899714
 5.75	0.9899722
 5.76	0.9899730
 5.77	0.9899739
 5.78	0.9899749
 5.79	0.9899759
 5.80	0.9899769
 5.81	0.9899780
 5.82	0.9899792
 5.83	0.9899804
 5.84	0.9899816
 5.85	0.9899829
 5.86	0.9899843
 5.87	0.9899856
 5.88	0.9899871
 5.89	0.9899886
 5.90	0.9899901
 5.91	0.9899916
 5.92	0.9899933
 5.93	0.9899949
 5.94	0.9899966
 5.95	0.9899984
 5.96	0.9900002
 5.97	0.9900020
 5.98	0.9900039
 5.99	0.9900058
 6.00	0.9900077
 6.01	0.9900074
 6.02	0.9900069
 6.03	0.9900064
 6.04	0.9900060
 6.05	0.9900057
 6.06	0.9900054
 6.07	0.9900052
 6.08	0.9900050
 6.09	0.9900048
 6.10	0.9900048
 6.11	0.9900047
 6.12	0.9900047
 6.13	0.9900048
 6.14	0.9900049
 6.15	0.9900051
 6.16	0.9900053
 6.17	0.9900056
 6.18	0.9900059
 6.19	0.9900062
 6.20	0.9900066
 6.21	0.9900071
 6.22	0.9900076
 6.23	0.9900081
 6.24	0.9900087
 6.25	0.9900093
 6.26	0.9900100
 6.27	0.9900107
 6.28	0.9900115
 6.29	0.9900123
 6.30	0.9900132
 6.31	0.9900140
 6.32	0.9900150
 6.33	0.9900160
 6.34	0.9900170
 6.35	0.9900180
 6.36	0.9900191
 6.37	0.9900202
 6.38	0.9900214
 6.39	0.9900226
 6.40	0.9900239
 6.41	0.9900252
 6.42	0.9900265
 6.43	0.9900279
 6.44	0.9900293
 6.45	0.9900307
 6.46	0.9900322
 6.47	0.9900337
 6.48	0.9900352
 6.49	0.9900368
 6.50	0.9900384
 6.51	0.9900401
 6.52	0.9900418
 6.53	0.9900435
 6.54	0.9900453
 6.55	0.9900464
 6.56	0.9900462
 6.57	0.9900460
 6.58	0.9900459
 6.59	0.9900457
 6.60	0.9900457
 6.61	0.9900457
 6.62	0.9900457
 6.63	0.9900458
 6.64	0.9900459
 6.65	0.9900460
 6.66	0.9900462
 6.67	0.9900465
 6.68	0.9900467
 6.69	0.9900470
 6.70	0.9900474
 6.71	0.9900478
 6.72	0.9900482
 6.73	0.9900487
 6.74	0.9900492
 6.75	0.9900497
 6.76	0.9900503
 6.77	0.9900509
 6.78	0.9900516
 6.79	0.9900523
 6.80	0.9900530
 6.81	0.9900538
 6.82	0.9900546
 6.83	0.9900554
 6.84	0.9900563
 6.85	0.9900572
 6.86	0.9900581
 6.87	0.9900591
 6.88	0.9900601
 6.89	0.9900611
 6.90	0.9900622
 6.91	0.9900633
 6.92	0.9900645
 6.93	0.9900656
 6.94	0.9900668
 6.95	0.9900681
 6.96	0.9900693
 6.97	0.9900706
 6.98	0.9900720
 6.99	0.9900733
 7.00	0.9900747
 7.01	0.9900761
 7.02	0.9900776
 7.03	0.9900791
 7.04	0.9900806
 7.05	0.9900813
 7.06	0.9900812
 7.07	0.9900812
 7.08	0.9900812
 7.09	0.9900812
 7.10	0.9900812
 7.11	0.9900813
 7.12	0.9900815
 7.13	0.9900816
 7.14	0.9900818
 7.15	0.9900821
 7.16	0.9900824
 7.17	0.9900827
 7.18	0.9900830
 7.19	0.9900834
 7.20	0.9900838
 7.21	0.9900842
 7.22	0.9900847
 7.23	0.9900852
 7.24	0.9900858
 7.25	0.9900863
 7.26	0.9900869
 7.27	0.9900876
 7.28	0.9900882
 7.29	0.9900889
 7.30	0.9900896
 7.31	0.9900904
 7.32	0.9900912
 7.33	0.9900920
 7.34	0.9900929
 7.35	0.9900937
 7.36	0.9900946
 7.37	0.9900956
 7.38	0.9900965
 7.39	0.9900975
 7.40	0.9900986
 7.41	0.9900996
 7.42	0.9901007
 7.43	0.9901018
 7.44	0.9901029
 7.45	0.9901041
 7.46	0.9901053
 7.47	0.9901065
 7.48	0.9901077
 7.49	0.9901090
 7.50	0.9901103
 7.51	0.9901116
 7.52	0.9901129
 7.53	0.9901143
 7.54	0.9901152
 7.55	0.9901152
 7.56	0.9901154
 7.57	0.9901155
 7.58	0.9901157
 7.59	0.9901159
 7.60	0.9901161
 7.61	0.9901164
 7.62	0.9901167
 7.63	0.9901170
 7.64	0.9901174
 7.65	0.9901178
 7.66	0.9901182
 7.67	0.9901186
 7.68	0.9901191
 7.69	0.9901196
 7.70	0.9901201
 7.71	0.9901207
 7.72	0.9901213
 7.73	0.9901219
 7.74	0.9901225
 7.75	0.9901232
 7.76	0.9901239
 7.77	0.9901246
 7.78	0.9901253
 7.79	0.9901261
 7.80	0.9901269
 7.81	0.9901277
 7.82	0.9901286
 7.83	0.9901295
 7.84	0.9901304
 7.85	0.9901313
 7.86	0.9901322
 7.87	0.9901332
 7.88	0.9901342
 7.89	0.9901352
 7.90	0.9901363
 7.91	0.9901373
 7.92	0.9901384
 7.93	0.9901395
 7.94	0.9901407
 7.95	0.9901418
 7.96	0.9901430
 7.97	0.9901442
 7.98	0.9901455
 7.99	0.9901467
 8.00	0.9901480
 8.01	0.9901477
 8.02	0.9901473
 8.03	0.9901470
 8.04	0.9901466
 8.05	0.9901463
 8.06	0.9901460
 8.07	0.9901458
 8.08	0.9901455
 8.09	0.9901453
 8.10	0.9901452
 8.11	0.9901450
 8.12	0.9901449
 8.13	0.9901448
 8.14	0.9901448
 8.15	0.9901447
 8.16	0.9901447
 8.17	0.9901447
 8.18	0.9901448
 8.19	0.9901448
 8.20	0.9901449
 8.21	0.9901450
 8.22	0.9901452
 8.23	0.9901454
 8.24	0.9901456
 8.25	0.9901458
 8.26	0.9901460
 8.27	0.9901463
 8.28	0.9901466
 8.29	0.9901469
 8.30	0.9901472
 8.31	0.9901476
 8.32	0.9901480
 8.33	0.9901484
 8.34	0.9901488
 8.35	0.9901493
 8.36	0.9901498
 8.37	0.9901503
 8.38	0.9901508
 8.39	0.9901514
 8.40	0.9901520
 8.41	0.9901525
 8.42	0.9901532
 8.43	0.9901538
 8.44	0.9901545
 8.45	0.9901552
 8.46	0.9901559
 8.47	0.9901566
 8.48	0.9901573
 8.49	0.9901581
 8.50	0.9901589
 8.51	0.9901597
 8.52	0.9901605
 8.53	0.9901614
 8.54	0.9901623
 8.55	0.9901632
 8.56	0.9901641
 8.57	0.9901650
 8.58	0.9901660
 8.59	0.9901669
 8.60	0.9901679
 8.61	0.9901690
 8.62	0.9901700
 8.63	0.9901710
 8.64	0.9901721
 8.65	0.9901732
 8.66	0.9901743
 8.67	0.9901754
 8.68	0.9901766
 8.69	0.9901777
 8.70	0.9901789
 8.71	0.9901801
 8.72	0.9901813
 8.73	0.9901826
 8.74	0.9901838
 8.75	0.9901851
 8.76	0.9901864
 8.77	0.9901877
 8.78	0.9901890
 8.79	0.9901904
 8.80	0.9901917
 8.81	0.9901931
 8.82	0.9901945
 8.83	0.9901959
 8.84	0.9901973
 8.85	0.9901988
 8.86	0.9902002
 8.87	0.9902017
 8.88	0.9902032
 8.89	0.9902047
 8.90	0.9902062
 8.91	0.9902078
 8.92	0.9902093
 8.93	0.9902109
 8.94	0.9902125
 8.95	0.9902141
 8.96	0.9902157
 8.97	0.9902173
 8.98	0.9902190
 8.99	0.9902206
 9.00	0.9902223
 9.01	0.9902225
 9.02	0.9902223
 9.03	0.9902221
 9.04	0.9902219
 9.05	0.9902218
 9.06	0.9902217
 9.07	0.9902216
 9.08	0.9902215
 9.09	0.9902214
 9.10	0.9902214
 9.11	0.9902214
 9.12	0.9902214
 9.13	0.9902214
 9.14	0.9902215
 9.15	0.9902215
 9.16	0.9902216
 9.17	0.9902217
 9.18	0.9902218
 9.19	0.9902220
 9.20	0.9902222
 9.21	0.9902223
 9.22	0.9902225
 9.23	0.9902228
 9.24	0.9902230
 9.25	0.9902233
 9.26	0.9902235
 9.27	0.9902238
 9.28	0.9902242
 9.29	0.9902245
 9.30	0.9902248
 9.31	0.9902252
 9.32	0.9902256
 9.33	0.9902260
 9.34	0.9902264
 9.35	0.9902269
 9.36	0.9902273
 9.37	0.9902278
 9.38	0.9902283
 9.39	0.9902288
 9.40	0.9902293
 9.41	0.9902299
 9.42	0.9902305
 9.43	0.9902310
 9.44	0.9902316
 9.45	0.9902322
 9.46	0.9902329
 9.47	0.9902335
 9.48	0.9902342
 9.49	0.9902349
 9.50	0.9902356
 9.51	0.9902363
 9.52	0.9902370
 9.53	0.9902377
 9.54	0.9902385
 9.55	0.9902393
 9.56	0.9902401
 9.57	0.9902409
 9.58	0.9902417
 9.59	0.9902425
 9.60	0.9902434
 9.61	0.9902442
 9.62	0.9902451
 9.63	0.9902460
 9.64	0.9902469
 9.65	0.9902479
 9.66	0.9902488
 9.67	0.9902497
 9.68	0.9902507
 9.69	0.9902517
 9.70	0.9902527
 9.71	0.9902537
 9.72	0.9902547
 9.73	0.9902558
 9.74	0.9902568
 9.75	0.9902579
 9.76	0.9902590
 9.77	0.9902601
 9.78	0.9902612
 9.79	0.9902623
 9.80	0.9902634
 9.81	0.9902646
 9.82	0.9902658
 9.83	0.9902669
 9.84	0.9902681
 9.85	0.9902693
 9.86	0.9902705
 9.87	0.9902718
 9.88	0.9902730
 9.89	0.9902743
 9.90	0.9902755
 9.91	0.9902768
 9.92	0.9902781
 9.93	0.9902794
 9.94	0.9902807
 9.95	0.9902821
 9.96	0.9902834
 9.97	0.9902848
 9.98	0.9902861
 9.99	0.9902875
10.00	0.9902889
10.01	0.9902903
10.02	0.9902917
10.03	0.9902931
10.04	0.9902946
10.05	0.9902960
10.06	0.9902975
10.07	0.9902989
10.08	0.9903004
10.09	0.9903019
10.10	0.9903034
10.11	0.9903049
10.12	0.9903065
10.13	0.9903080
10.14	0.9903082
10.15	0.9903084
10.16	0.9903086
10.17	0.9903088
10.18	0.9903090
10.19	0.9903093
10.20	0.9903096
10.21	0.9903099
10.22	0.9903102
10.23	0.9903105
10.24	0.9903108
10.25	0.9903111
10.26	0.9903115
10.27	0.9903119
10.28	0.9903123
10.29	0.9903127
10.30	0.9903131
10.31	0.9903135
10.32	0.9903140
10.33	0.9903144
10.34	0.9903149
10.35	0.9903154
10.36	0.9903159
10.37	0.9903164
10.38	0.9903169
10.39	0.9903175
10.40	0.9903180
10.41	0.9903186
10.42	0.9903192
10.43	0.9903198
10.44	0.9903204
10.45	0.9903210
10.46	0.9903216
10.47	0.9903223
10.48	0.9903229
10.49	0.9903236
10.50	0.9903243
10.51	0.9903250
10.52	0.9903257
10.53	0.9903264
10.54	0.9903271
10.55	0.9903279
10.56	0.9903287
10.57	0.9903294
10.58	0.9903302
10.59	0.9903310
10.60	0.9903318
10.61	0.9903326
10.62	0.9903335
10.63	0.9903343
10.64	0.9903352
10.65	0.9903360
10.66	0.9903369
10.67	0.9903378
10.68	0.9903387
10.69	0.9903396
10.70	0.9903405
10.71	0.9903415
10.72	0.9903424
10.73	0.9903434
10.74	0.9903444
10.75	0.9903453
10.76	0.9903463
10.77	0.9903473
10.78	0.9903484
10.79	0.9903494
10.80	0.9903504
10.81	0.9903515
10.82	0.9903525
10.83	0.9903536
10.84	0.9903547
10.85	0.9903558
10.86	0.9903569
10.87	0.9903580
10.88	0.9903591
10.89	0.9903602
10.90	0.9903614
10.91	0.9903625
10.92	0.9903637
10.93	0.9903648
10.94	0.9903660
10.95	0.9903672
10.96	0.9903684
10.97	0.9903696
10.98	0.9903708
10.99	0.9903721
11.00	0.9903733
11.01	0.9903746
11.02	0.9903758
11.03	0.9903771
11.04	0.9903784
11.05	0.9903796
11.06	0.9903809
11.07	0.9903823
11.08	0.9903836
11.09	0.9903849
11.10	0.9903862
11.11	0.9903876
11.12	0.9903889
11.13	0.9903903
11.14	0.9903916
11.15	0.9903930
11.16	0.9903944
11.17	0.9903958
11.18	0.9903962
11.19	0.9903967
11.20	0.9903971
11.21	0.9903976
11.22	0.9903981
11.23	0.9903986
11.24	0.9903991
11.25	0.9903996
11.26	0.9904001
11.27	0.9904006
11.28	0.9904012
11.29	0.9904017
11.30	0.9904023
11.31	0.9904028
11.32	0.9904034
11.33	0.9904040
11.34	0.9904046
11.35	0.9904052
11.36	0.9904058
11.37	0.9904065
11.38	0.9904071
11.39	0.9904078
11.40	0.9904084
11.41	0.9904091
11.42	0.9904098
11.43	0.9904105
11.44	0.9904112
11.45	0.9904119
11.46	0.9904126
11.47	0.9904134
11.48	0.9904141
11.49	0.9904149
11.50	0.9904156
11.51	0.9904164
11.52	0.9904172
11.53	0.9904180
11.54	0.9904188
11.55	0.9904196
11.56	0.9904204
11.57	0.9904212
11.58	0.9904220
11.59	0.9904229
11.60	0.9904237
11.61	0.9904246
11.62	0.9904255
11.63	0.9904264
11.64	0.9904272
11.65	0.9904281
11.66	0.9904290
11.67	0.9904300
11.68	0.9904309
11.69	0.9904318
11.70	0.9904328
11.71	0.9904337
11.72	0.9904347
11.73	0.9904356
11.74	0.9904366
11.75	0.9904376
11.76	0.9904386
11.77	0.9904396
11.78	0.9904406
11.79	0.9904416
11.80	0.9904426
11.81	0.9904437
11.82	0.9904447
11.83	0.9904458
11.84	0.9904468
11.85	0.9904479
11.86	0.9904490
11.87	0.9904500
11.88	0.9904511
11.89	0.9904522
11.90	0.9904533
11.91	0.9904545
11.92	0.9904556
11.93	0.9904567
11.94	0.9904578
11.95	0.9904590
11.96	0.9904601
11.97	0.9904613
11.98	0.9904625
11.99	0.9904636
12.00	0.9904648
12.01	0.9904653
12.02	0.9904659
12.03	0.9904664
12.04	0.9904670
12.05	0.9904675
12.06	0.9904681
12.07	0.9904687
12.08	0.9904692
12.09	0.9904698
12.10	0.9904704
12.11	0.9904711
12.12	0.9904717
12.13	0.9904723
12.14	0.9904729
12.15	0.9904736
12.16	0.9904742
12.17	0.9904749
12.18	0.9904756
12.19	0.9904763
12.20	0.9904769
12.21	0.9904776
12.22	0.9904783
12.23	0.9904791
12.24	0.9904798
12.25	0.9904805
12.26	0.9904812
12.27	0.9904820
12.28	0.9904827
12.29	0.9904835
12.30	0.9904843
12.31	0.9904851
12.32	0.9904858
12.33	0.9904866
12.34	0.9904874
12.35	0.9904882
12.36	0.9904891
12.37	0.9904899
12.38	0.9904907
12.39	0.9904916
12.40	0.9904924
12.41	0.9904933
12.42	0.9904941
12.43	0.9904950
12.44	0.9904959
12.45	0.9904967
12.46	0.9904976
12.47	0.9904985
12.48	0.9904994
12.49	0.9905004
12.50	0.9905013
12.51	0.9905022
12.52	0.9905031
12.53	0.9905041
12.54	0.9905050
12.55	0.9905060
12.56	0.9905070
12.57	0.9905079
12.58	0.9905089
12.59	0.9905099
12.60	0.9905109
12.61	0.9905119
12.62	0.9905129
12.63	0.9905139
12.64	0.9905149
12.65	0.9905159
12.66	0.9905170
12.67	0.9905180
12.68	0.9905191
12.69	0.9905201
12.70	0.9905212
12.71	0.9905222
12.72	0.9905233
12.73	0.9905244
12.74	0.9905255
12.75	0.9905266
12.76	0.9905277
12.77	0.9905288
12.78	0.9905299
12.79	0.9905310
12.80	0.9905321
12.81	0.9905332
12.82	0.9905344
12.83	0.9905355
12.84	0.9905367
12.85	0.9905378
12.86	0.9905390
12.87	0.9905401
12.88	0.9905413
12.89	0.9905425
12.90	0.9905437
12.91	0.9905449
12.92	0.9905461
12.93	0.9905473
12.94	0.9905485
12.95	0.9905497
12.96	0.9905509
12.97	0.9905515
12.98	0.9905520
12.99	0.9905526
13.00	0.9905532
13.01	0.9905538
13.02	0.9905544
13.03	0.9905550
13.04	0.9905556
13.05	0.9905562
13.06	0.9905568
13.07	0.9905575
13.08	0.9905581
13.09	0.9905587
13.10	0.9905594
13.11	0.9905601
13.12	0.9905607
13.13	0.9905614
13.14	0.9905621
13.15	0.9905628
13.16	0.9905634
13.17	0.9905641
13.18	0.9905648
13.19	0.9905656
13.20	0.9905663
13.21	0.9905670
13.22	0.9905677
13.23	0.9905685
13.24	0.9905692
13.25	0.9905700
13.26	0.9905707
13.27	0.9905715
13.28	0.9905722
13.29	0.9905730
13.30	0.9905738
13.31	0.9905746
13.32	0.9905754
13.33	0.9905762
13.34	0.9905770
13.35	0.9905778
13.36	0.9905786
13.37	0.9905794
13.38	0.9905803
13.39	0.9905811
13.40	0.9905819
13.41	0.9905828
13.42	0.9905837
13.43	0.9905845
13.44	0.9905854
13.45	0.9905862
13.46	0.9905871
13.47	0.9905880
13.48	0.9905889
13.49	0.9905898
13.50	0.9905907
13.51	0.9905916
13.52	0.9905925
13.53	0.9905934
13.54	0.9905944
13.55	0.9905953
13.56	0.9905962
13.57	0.9905972
13.58	0.9905981
13.59	0.9905990
13.60	0.9906000
13.61	0.9906010
13.62	0.9906019
13.63	0.9906029
13.64	0.9906039
13.65	0.9906049
13.66	0.9906059
13.67	0.9906069
13.68	0.9906079
13.69	0.9906089
13.70	0.9906099
13.71	0.9906109
13.72	0.9906119
13.73	0.9906129
13.74	0.9906140
13.75	0.9906150
13.76	0.9906160
13.77	0.9906171
13.78	0.9906181
13.79	0.9906192
13.80	0.9906203
13.81	0.9906213
13.82	0.9906224
13.83	0.9906235
13.84	0.9906245
13.85	0.9906256
13.86	0.9906267
13.87	0.9906278
13.88	0.9906289
13.89	0.9906300
13.90	0.9906311
13.91	0.9906323
13.92	0.9906334
13.93	0.9906345
13.94	0.9906356
13.95	0.9906368
13.96	0.9906379
13.97	0.9906390
13.98	0.9906402
13.99	0.9906413
14.00	0.9906425
14.01	0.9906437
14.02	0.9906448
14.03	0.9906460
14.04	0.9906472
14.05	0.9906484
14.06	0.9906495
14.07	0.9906507
14.08	0.9906519
14.09	0.9906531
14.10	0.9906539
14.11	0.9906546
14.12	0.9906553
14.13	0.9906561
14.14	0.9906569
14.15	0.9906576
14.16	0.9906584
14.17	0.9906592
14.18	0.9906599
14.19	0.9906607
14.20	0.9906615
14.21	0.9906623
14.22	0.9906631
14.23	0.9906639
14.24	0.9906647
14.25	0.9906655
14.26	0.9906663
14.27	0.9906672
14.28	0.9906680
14.29	0.9906688
14.30	0.9906697
14.31	0.9906705
14.32	0.9906713
14.33	0.9906722
14.34	0.9906731
14.35	0.9906739
14.36	0.9906748
14.37	0.9906757
14.38	0.9906765
14.39	0.9906774
14.40	0.9906783
14.41	0.9906792
14.42	0.9906801
14.43	0.9906810
14.44	0.9906819
14.45	0.9906828
14.46	0.9906837
14.47	0.9906846
14.48	0.9906856
14.49	0.9906865
14.50	0.9906874
14.51	0.9906884
14.52	0.9906893
14.53	0.9906902
14.54	0.9906912
14.55	0.9906921
14.56	0.9906931
14.57	0.9906941
14.58	0.9906950
14.59	0.9906960
14.60	0.9906970
14.61	0.9906980
14.62	0.9906990
14.63	0.9906999
14.64	0.9907009
14.65	0.9907019
14.66	0.9907029
14.67	0.9907040
14.68	0.9907050
14.69	0.9907060
14.70	0.9907070
14.71	0.9907080
14.72	0.9907090
14.73	0.9907101
14.74	0.9907111
14.75	0.9907122
14.76	0.9907132
14.77	0.9907143
14.78	0.9907153
14.79	0.9907164
14.80	0.9907174
14.81	0.9907185
14.82	0.9907196
14.83	0.9907206
14.84	0.9907217
14.85	0.9907228
14.86	0.9907239
14.87	0.9907250
14.88	0.9907261
14.89	0.9907272
14.90	0.9907283
14.91	0.9907294
14.92	0.9907305
14.93	0.9907316
14.94	0.9907327
14.95	0.9907338
14.96	0.9907349
14.97	0.9907361
14.98	0.9907372
14.99	0.9907383
15.00	0.9907395
15.01	0.9907406
15.02	0.9907418
15.03	0.9907429
15.04	0.9907441
15.05	0.9907452
15.06	0.9907464
15.07	0.9907475
15.08	0.9907483
15.09	0.9907491
15.10	0.9907499
15.11	0.9907508
15.12	0.9907516
15.13	0.9907524
15.14	0.9907532
15.15	0.9907540
15.16	0.9907549
15.17	0.9907557
15.18	0.9907565
15.19	0.9907574
15.20	0.9907582
15.21	0.9907591
15.22	0.9907599
15.23	0.9907608
15.24	0.9907616
15.25	0.9907625
15.26	0.9907634
15.27	0.9907642
15.28	0.9907651
15.29	0.9907660
15.30	0.9907669
15.31	0.9907678
15.32	0.9907687
15.33	0.9907695
15.34	0.9907704
15.35	0.9907714
15.36	0.9907723
15.37	0.9907732
15.38	0.9907741
15.39	0.9907750
15.40	0.9907759
15.41	0.9907768
15.42	0.9907778
15.43	0.9907787
15.44	0.9907796
15.45	0.9907806
15.46	0.9907815
15.47	0.9907825
15.48	0.9907834
15.49	0.9907844
15.50	0.9907853
15.51	0.9907863
15.52	0.9907873
15.53	0.9907882
15.54	0.9907892
15.55	0.9907902
15.56	0.9907912
15.57	0.9907921
15.58	0.9907931
15.59	0.9907941
15.60	0.9907951
15.61	0.9907961
15.62	0.9907971
15.63	0.9907981
15.64	0.9907991
15.65	0.9908001
15.66	0.9908011
15.67	0.9908021
15.68	0.9908032
15.69	0.9908042
15.70	0.9908052
15.71	0.9908062
15.72	0.9908073
15.73	0.9908083
15.74	0.9908093
15.75	0.9908104
15.76	0.9908114
15.77	0.9908125
15.78	0.9908135
15.79	0.9908146
15.80	0.9908156
15.81	0.9908167
15.82	0.9908178
15.83	0.9908188
15.84	0.9908199
15.85	0.9908210
15.86	0.9908221
15.87	0.9908231
15.88	0.9908242
15.89	0.9908253
15.90	0.9908264
15.91	0.9908275
15.92	0.9908286
15.93	0.9908297
15.94	0.9908308
15.95	0.9908319
15.96	0.9908330
15.97	0.9908341
15.98	0.9908352
15.99	0.9908363
16.00	0.9908375
16.01	0.9908386
16.02	0.9908397
16.03	0.9908408
16.04	0.9908420
16.05	0.9908431
16.06	0.9908442
16.07	0.9908454
16.08	0.9908465
16.09	0.9908477
16.10	0.9908488
16.11	0.9908499
16.12	0.9908511
16.13	0.9908523
16.14	0.9908534
16.15	0.9908546
16.16	0.9908557
16.17	0.9908569
16.18	0.9908581
16.19	0.9908593
16.20	0.9908604
16.21	0.9908613
16.22	0.9908622
16.23	0.9908630
16.24	0.9908639
16.25	0.9908648
16.26	0.9908657
16.27	0.9908665
16.28	0.9908674
16.29	0.9908683
16.30	0.9908692
16.31	0.9908701
16.32	0.9908710
16.33	0.9908719
16.34	0.9908728
16.35	0.9908737
16.36	0.9908746
16.37	0.9908755
16.38	0.9908764
16.39	0.9908773
16.40	0.9908783
16.41	0.9908792
16.42	0.9908801
16.43	0.9908810
16.44	0.9908820
16.45	0.9908829
16.46	0.9908838
16.47	0.9908848
16.48	0.9908857
16.49	0.9908867
16.50	0.9908876
16.51	0.9908886
16.52	0.9908895
16.53	0.9908905
16.54	0.9908914
16.55	0.9908924
16.56	0.9908934
16.57	0.9908943
16.58	0.9908953
16.59	0.9908963
16.60	0.9908972
16.61	0.9908982
16.62	0.9908992
16.63	0.9909002
16.64	0.9909012
16.65	0.9909022
16.66	0.9909032
16.67	0.9909041
16.68	0.9909051
16.69	0.9909061
16.70	0.9909071
16.71	0.9909081
16.72	0.9909092
16.73	0.9909102
16.74	0.9909112
16.75	0.9909122
16.76	0.9909132
16.77	0.9909142
16.78	0.9909153
16.79	0.9909163
16.80	0.9909173
16.81	0.9909183
16.82	0.9909194
16.83	0.9909204
16.84	0.9909214
16.85	0.9909225
16.86	0.9909235
16.87	0.9909246
16.88	0.9909256
16.89	0.9909267
16.90	0.9909277
16.91	0.9909288
16.92	0.9909298
16.93	0.9909309
16.94	0.9909320
16.95	0.9909330
16.96	0.9909341
16.97	0.9909352
16.98	0.9909362
16.99	0.9909373
17.00	0.9909384
17.01	0.9909395
17.02	0.9909405
17.03	0.9909416
17.04	0.9909427
17.05	0.9909438
17.06	0.9909449
17.07	0.9909459
17.08	0.9909468
17.09	0.9909478
17.10	0.9909487
17.11	0.9909497
17.12	0.9909507
17.13	0.9909517
17.14	0.9909526
17.15	0.9909536
17.16	0.9909546
17.17	0.9909556
17.18	0.9909566
17.19	0.9909576
17.20	0.9909586
17.21	0.9909596
17.22	0.9909605
17.23	0.9909615
17.24	0.9909625
17.25	0.9909636
17.26	0.9909646
17.27	0.9909656
17.28	0.9909666
17.29	0.9909676
17.30	0.9909686
17.31	0.9909696
17.32	0.9909707
17.33	0.9909717
17.34	0.9909727
17.35	0.9909737
17.36	0.9909748
17.37	0.9909758
17.38	0.9909768
17.39	0.9909779
17.40	0.9909789
17.41	0.9909799
17.42	0.9909810
17.43	0.9909820
17.44	0.9909831
17.45	0.9909841
17.46	0.9909852
17.47	0.9909862
17.48	0.9909873
17.49	0.9909884
17.50	0.9909894
17.51	0.9909905
17.52	0.9909915
17.53	0.9909926
17.54	0.9909937
17.55	0.9909948
17.56	0.9909958
17.57	0.9909969
17.58	0.9909980
17.59	0.9909991
17.60	0.9910002
17.61	0.9910012
17.62	0.9910023
17.63	0.9910034
17.64	0.9910045
17.65	0.9910056
17.66	0.9910067
17.67	0.9910078
17.68	0.9910089
17.69	0.9910100
17.70	0.9910111
17.71	0.9910122
17.72	0.9910133
17.73	0.9910144
17.74	0.9910155
17.75	0.9910167
17.76	0.9910178
17.77	0.9910189
17.78	0.9910200
17.79	0.9910211
17.80	0.9910223
17.81	0.9910234
17.82	0.9910245
17.83	0.9910256
17.84	0.9910268
17.85	0.9910279
17.86	0.9910290
17.87	0.9910302
17.88	0.9910313
17.89	0.9910325
17.90	0.9910336
17.91	0.9910347
17.92	0.9910359
17.93	0.9910370
17.94	0.9910382
17.95	0.9910393
17.96	0.9910405
17.97	0.9910417
17.98	0.9910428
17.99	0.9910440
18.00	0.9910451
18.01	0.9910460
18.02	0.9910469
18.03	0.9910478
18.04	0.9910486
18.05	0.9910495
18.06	0.9910504
18.07	0.9910513
18.08	0.9910521
18.09	0.9910530
18.10	0.9910539
18.11	0.9910548
18.12	0.9910557
18.13	0.9910566
18.14	0.9910575
18.15	0.9910584
18.16	0.9910593
18.17	0.9910602
18.18	0.9910611
18.19	0.9910620
18.20	0.9910629
18.21	0.9910638
18.22	0.9910647
18.23	0.9910656
18.24	0.9910665
18.25	0.9910674
18.26	0.9910684
18.27	0.9910693
18.28	0.9910702
18.29	0.9910711
18.30	0.9910720
18.31	0.9910730
18.32	0.9910739
18.33	0.9910748
18.34	0.9910758
18.35	0.9910767
18.36	0.9910776
18.37	0.9910786
18.38	0.9910795
18.39	0.9910805
18.40	0.9910814
18.41	0.9910823
18.42	0.9910833
18.43	0.9910842
18.44	0.9910852
18.45	0.9910861
18.46	0.9910871
18.47	0.9910881
18.48	0.9910890
18.49	0.9910900
18.50	0.9910909
18.51	0.9910919
18.52	0.9910929
18.53	0.9910938
18.54	0.9910948
18.55	0.9910958
18.56	0.9910968
18.57	0.9910977
18.58	0.9910987
18.59	0.9910997
18.60	0.9911007
18.61	0.9911016
18.62	0.9911026
18.63	0.9911036
18.64	0.9911046
18.65	0.9911056
18.66	0.9911066
18.67	0.9911076
18.68	0.9911086
18.69	0.9911096
18.70	0.9911106
18.71	0.9911116
18.72	0.9911126
18.73	0.9911136
18.74	0.9911146
18.75	0.9911156
18.76	0.9911166
18.77	0.9911176
18.78	0.9911186
18.79	0.9911196
18.80	0.9911206
18.81	0.9911216
18.82	0.9911226
18.83	0.9911237
18.84	0.9911247
18.85	0.9911257
18.86	0.9911267
18.87	0.9911278
18.88	0.9911288
18.89	0.9911298
18.90	0.9911308
18.91	0.9911319
18.92	0.9911329
18.93	0.9911339
18.94	0.9911350
18.95	0.9911360
18.96	0.9911370
18.97	0.9911381
18.98	0.9911391
18.99	0.9911402
19.00	0.9911412
