# author : Oliver Czoske
# source : E-SPE-NOVA-MET-1049_3-0 (METIS transmission budget)
# date_created : 2020-02-28
# date_modified : 2020-04-13
# status : version 3.0
# type : dichroic
# wavelength_unit : um
# description : IMG dichroic, LM:trans, N:reflect
# comment : extracted from excel sheet "CFO+IMG-NQ"
#
wavelength	transmission	reflection	emissivity
 0.50	0.0000	1.0000	0
 0.51	0.0000	1.0000	0
 0.52	0.0000	1.0000	0
 0.53	0.0000	1.0000	0
 0.54	0.0000	1.0000	0
 0.55	0.0000	1.0000	0
 0.56	0.0000	1.0000	0
 0.57	0.0000	1.0000	0
 0.58	0.0000	1.0000	0
 0.59	0.0000	1.0000	0
 0.60	0.0000	1.0000	0
 0.61	0.0000	1.0000	0
 0.62	0.0000	1.0000	0
 0.63	0.0000	1.0000	0
 0.64	0.0000	1.0000	0
 0.65	0.0000	1.0000	0
 0.66	0.0000	1.0000	0
 0.67	0.0000	1.0000	0
 0.68	0.0000	1.0000	0
 0.69	0.0000	1.0000	0
 0.70	0.0000	1.0000	0
 0.71	0.0000	1.0000	0
 0.72	0.0000	1.0000	0
 0.73	0.0000	1.0000	0
 0.74	0.0000	1.0000	0
 0.75	0.0000	1.0000	0
 0.76	0.0000	1.0000	0
 0.77	0.0000	1.0000	0
 0.78	0.0000	1.0000	0
 0.79	0.0000	1.0000	0
 0.80	0.0000	1.0000	0
 0.81	0.0000	1.0000	0
 0.82	0.0000	1.0000	0
 0.83	0.0000	1.0000	0
 0.84	0.0000	1.0000	0
 0.85	0.0000	1.0000	0
 0.86	0.0000	1.0000	0
 0.87	0.0000	1.0000	0
 0.88	0.0000	1.0000	0
 0.89	0.0000	1.0000	0
 0.90	0.0000	1.0000	0
 0.91	0.0000	1.0000	0
 0.92	0.0000	1.0000	0
 0.93	0.0000	1.0000	0
 0.94	0.0000	1.0000	0
 0.95	0.0000	1.0000	0
 0.96	0.0000	1.0000	0
 0.97	0.0000	1.0000	0
 0.98	0.0000	1.0000	0
 0.99	0.0000	1.0000	0
 1.00	0.0000	1.0000	0
 1.01	0.0000	1.0000	0
 1.02	0.0000	1.0000	0
 1.03	0.0000	1.0000	0
 1.04	0.0000	1.0000	0
 1.05	0.0000	1.0000	0
 1.06	0.0000	1.0000	0
 1.07	0.0000	1.0000	0
 1.08	0.0000	1.0000	0
 1.09	0.0000	1.0000	0
 1.10	0.0000	1.0000	0
 1.11	0.0000	1.0000	0
 1.12	0.0000	1.0000	0
 1.13	0.0000	1.0000	0
 1.14	0.0000	1.0000	0
 1.15	0.0000	1.0000	0
 1.16	0.0000	1.0000	0
 1.17	0.0000	1.0000	0
 1.18	0.0000	1.0000	0
 1.19	0.0000	1.0000	0
 1.20	0.0000	1.0000	0
 1.21	0.0000	1.0000	0
 1.22	0.0000	1.0000	0
 1.23	0.0000	1.0000	0
 1.24	0.0000	1.0000	0
 1.25	0.0000	1.0000	0
 1.26	0.0000	1.0000	0
 1.27	0.0000	1.0000	0
 1.28	0.0000	1.0000	0
 1.29	0.0000	1.0000	0
 1.30	0.0000	1.0000	0
 1.31	0.0000	1.0000	0
 1.32	0.0000	1.0000	0
 1.33	0.0000	1.0000	0
 1.34	0.0000	1.0000	0
 1.35	0.0000	1.0000	0
 1.36	0.0000	1.0000	0
 1.37	0.0000	1.0000	0
 1.38	0.0000	1.0000	0
 1.39	0.0000	1.0000	0
 1.40	0.0000	1.0000	0
 1.41	0.0000	1.0000	0
 1.42	0.0000	1.0000	0
 1.43	0.0000	1.0000	0
 1.44	0.0000	1.0000	0
 1.45	0.0000	1.0000	0
 1.46	0.0000	1.0000	0
 1.47	0.0000	1.0000	0
 1.48	0.0000	1.0000	0
 1.49	0.0000	1.0000	0
 1.50	0.0000	1.0000	0
 1.51	0.0000	1.0000	0
 1.52	0.0000	1.0000	0
 1.53	0.0000	1.0000	0
 1.54	0.0000	1.0000	0
 1.55	0.0000	1.0000	0
 1.56	0.0000	1.0000	0
 1.57	0.0000	1.0000	0
 1.58	0.0000	1.0000	0
 1.59	0.0000	1.0000	0
 1.60	0.0000	1.0000	0
 1.61	0.0000	1.0000	0
 1.62	0.0000	1.0000	0
 1.63	0.0000	1.0000	0
 1.64	0.0000	1.0000	0
 1.65	0.0000	1.0000	0
 1.66	0.0000	1.0000	0
 1.67	0.0000	1.0000	0
 1.68	0.0000	1.0000	0
 1.69	0.0000	1.0000	0
 1.70	0.0000	1.0000	0
 1.71	0.0000	1.0000	0
 1.72	0.0000	1.0000	0
 1.73	0.0000	1.0000	0
 1.74	0.0000	1.0000	0
 1.75	0.0000	1.0000	0
 1.76	0.0000	1.0000	0
 1.77	0.0000	1.0000	0
 1.78	0.0000	1.0000	0
 1.79	0.0000	1.0000	0
 1.80	0.0001	0.9999	0
 1.81	0.0000	1.0000	0
 1.82	0.0000	1.0000	0
 1.83	0.0001	0.9999	0
 1.84	0.0000	1.0000	0
 1.85	0.0000	1.0000	0
 1.86	0.0000	1.0000	0
 1.87	0.0000	1.0000	0
 1.88	0.0000	1.0000	0
 1.89	0.0000	1.0000	0
 1.90	0.0001	0.9999	0
 1.91	0.0001	0.9999	0
 1.92	0.1232	0.8768	0
 1.93	0.0125	0.9875	0
 1.94	0.0078	0.9922	0
 1.95	0.0006	0.9994	0
 1.96	0.0002	0.9998	0
 1.97	0.0003	0.9997	0
 1.98	0.0030	0.9970	0
 1.99	0.0797	0.9203	0
 2.00	0.0578	0.9422	0
 2.01	0.2842	0.7158	0
 2.02	0.1962	0.8038	0
 2.03	0.1455	0.8545	0
 2.04	0.0505	0.9495	0
 2.05	0.6715	0.3285	0
 2.06	0.0093	0.9907	0
 2.07	0.0041	0.9959	0
 2.08	0.0368	0.9632	0
 2.09	0.0048	0.9952	0
 2.10	0.0016	0.9984	0
 2.11	0.0027	0.9973	0
 2.12	0.0185	0.9815	0
 2.13	0.0186	0.9814	0
 2.14	0.0145	0.9855	0
 2.15	0.0018	0.9982	0
 2.16	0.0009	0.9991	0
 2.17	0.0012	0.9988	0
 2.18	0.0077	0.9923	0
 2.19	0.0249	0.9751	0
 2.20	0.0050	0.9950	0
 2.21	0.0082	0.9918	0
 2.22	0.0845	0.9155	0
 2.23	0.1978	0.8022	0
 2.24	0.1774	0.8226	0
 2.25	0.5950	0.4050	0
 2.26	0.0914	0.9086	0
 2.27	0.1236	0.8764	0
 2.28	0.7376	0.2624	0
 2.29	0.0731	0.9269	0
 2.30	0.0680	0.9320	0
 2.31	0.3951	0.6049	0
 2.32	0.2287	0.7713	0
 2.33	0.0394	0.9606	0
 2.34	0.0068	0.9932	0
 2.35	0.0030	0.9970	0
 2.36	0.0029	0.9971	0
 2.37	0.0068	0.9932	0
 2.38	0.0236	0.9764	0
 2.39	0.0203	0.9797	0
 2.40	0.2380	0.7620	0
 2.41	0.0053	0.9947	0
 2.42	0.0009	0.9991	0
 2.43	0.0005	0.9995	0
 2.44	0.0004	0.9996	0
 2.45	0.0006	0.9994	0
 2.46	0.0017	0.9983	0
 2.47	0.0094	0.9906	0
 2.48	0.1208	0.8792	0
 2.49	0.4036	0.5964	0
 2.50	0.3833	0.6167	0
 2.51	0.4716	0.5284	0
 2.52	0.5599	0.4401	0
 2.53	0.1307	0.8693	0
 2.54	0.4138	0.5862	0
 2.55	0.0040	0.9960	0
 2.56	0.0008	0.9992	0
 2.57	0.0004	0.9996	0
 2.58	0.0004	0.9996	0
 2.59	0.0085	0.9915	0
 2.60	0.0004	0.9996	0
 2.61	0.0000	1.0000	0
 2.62	0.0000	1.0000	0
 2.63	0.0000	1.0000	0
 2.64	0.0000	1.0000	0
 2.65	0.0000	1.0000	0
 2.66	0.0000	1.0000	0
 2.67	0.0000	1.0000	0
 2.68	0.0000	1.0000	0
 2.69	0.0002	0.9998	0
 2.70	0.0008	0.9992	0
 2.71	0.0003	0.9997	0
 2.72	0.0001	0.9999	0
 2.73	0.0001	0.9999	0
 2.74	0.0001	0.9999	0
 2.75	0.0001	0.9999	0
 2.76	0.0003	0.9997	0
 2.77	0.0007	0.9993	0
 2.78	0.0027	0.9973	0
 2.79	0.0123	0.9877	0
 2.80	0.0610	0.9390	0
 2.81	0.0789	0.9211	0
 2.82	0.0571	0.9429	0
 2.83	0.0506	0.9494	0
 2.84	0.0382	0.9618	0
 2.85	0.0533	0.9467	0
 2.86	0.1173	0.8827	0
 2.87	0.3226	0.6774	0
 2.88	0.5678	0.4322	0
 2.89	0.7815	0.2185	0
 2.90	0.9676	0.0324	0
 2.91	0.9889	0.0111	0
 2.92	0.9859	0.0141	0
 2.93	0.9753	0.0247	0
 2.94	0.9808	0.0192	0
 2.95	0.9886	0.0114	0
 2.96	0.9814	0.0186	0
 2.97	0.9739	0.0261	0
 2.98	0.9793	0.0207	0
 2.99	0.9855	0.0145	0
 3.00	0.9818	0.0182	0
 3.01	0.9773	0.0227	0
 3.02	0.9817	0.0183	0
 3.03	0.9890	0.0110	0
 3.04	0.9877	0.0123	0
 3.05	0.9797	0.0203	0
 3.06	0.9762	0.0238	0
 3.07	0.9813	0.0187	0
 3.08	0.9869	0.0131	0
 3.09	0.9846	0.0154	0
 3.10	0.9781	0.0219	0
 3.11	0.9767	0.0233	0
 3.12	0.9827	0.0173	0
 3.13	0.9885	0.0115	0
 3.14	0.9862	0.0138	0
 3.15	0.9784	0.0216	0
 3.16	0.9743	0.0257	0
 3.17	0.9784	0.0216	0
 3.18	0.9857	0.0143	0
 3.19	0.9874	0.0126	0
 3.20	0.9814	0.0186	0
 3.21	0.9748	0.0252	0
 3.22	0.9750	0.0250	0
 3.23	0.9821	0.0179	0
 3.24	0.9890	0.0110	0
 3.25	0.9888	0.0112	0
 3.26	0.9825	0.0175	0
 3.27	0.9776	0.0224	0
 3.28	0.9795	0.0205	0
 3.29	0.9865	0.0135	0
 3.30	0.9917	0.0083	0
 3.31	0.9892	0.0108	0
 3.32	0.9812	0.0188	0
 3.33	0.9753	0.0247	0
 3.34	0.9769	0.0231	0
 3.35	0.9849	0.0151	0
 3.36	0.9927	0.0073	0
 3.37	0.9933	0.0067	0
 3.38	0.9863	0.0137	0
 3.39	0.9779	0.0221	0
 3.40	0.9751	0.0249	0
 3.41	0.9797	0.0203	0
 3.42	0.9878	0.0122	0
 3.43	0.9924	0.0076	0
 3.44	0.9897	0.0103	0
 3.45	0.9823	0.0177	0
 3.46	0.9767	0.0233	0
 3.47	0.9773	0.0227	0
 3.48	0.9839	0.0161	0
 3.49	0.9919	0.0081	0
 3.50	0.9953	0.0047	0
 3.51	0.9918	0.0082	0
 3.52	0.9847	0.0153	0
 3.53	0.9799	0.0201	0
 3.54	0.9808	0.0192	0
 3.55	0.9870	0.0130	0
 3.56	0.9938	0.0062	0
 3.57	0.9964	0.0036	0
 3.58	0.9924	0.0076	0
 3.59	0.9848	0.0152	0
 3.60	0.9788	0.0212	0
 3.61	0.9779	0.0221	0
 3.62	0.9824	0.0176	0
 3.63	0.9894	0.0106	0
 3.64	0.9938	0.0062	0
 3.65	0.9929	0.0071	0
 3.66	0.9870	0.0130	0
 3.67	0.9807	0.0193	0
 3.68	0.9777	0.0223	0
 3.69	0.9800	0.0200	0
 3.70	0.9860	0.0140	0
 3.71	0.9921	0.0079	0
 3.72	0.9943	0.0057	0
 3.73	0.9912	0.0088	0
 3.74	0.9850	0.0150	0
 3.75	0.9796	0.0204	0
 3.76	0.9783	0.0217	0
 3.77	0.9817	0.0183	0
 3.78	0.9881	0.0119	0
 3.79	0.9938	0.0062	0
 3.80	0.9953	0.0047	0
 3.81	0.9918	0.0082	0
 3.82	0.9854	0.0146	0
 3.83	0.9797	0.0203	0
 3.84	0.9778	0.0222	0
 3.85	0.9806	0.0194	0
 3.86	0.9865	0.0135	0
 3.87	0.9923	0.0077	0
 3.88	0.9949	0.0051	0
 3.89	0.9925	0.0075	0
 3.90	0.9866	0.0134	0
 3.91	0.9804	0.0196	0
 3.92	0.9770	0.0230	0
 3.93	0.9778	0.0222	0
 3.94	0.9823	0.0177	0
 3.95	0.9879	0.0121	0
 3.96	0.9916	0.0084	0
 3.97	0.9912	0.0088	0
 3.98	0.9869	0.0131	0
 3.99	0.9810	0.0190	0
 4.00	0.9767	0.0233	0
 4.01	0.9761	0.0239	0
 4.02	0.9795	0.0205	0
 4.03	0.9851	0.0149	0
 4.04	0.9902	0.0098	0
 4.05	0.9921	0.0079	0
 4.06	0.9898	0.0102	0
 4.07	0.9846	0.0154	0
 4.08	0.9798	0.0202	0
 4.09	0.9778	0.0222	0
 4.10	0.9794	0.0206	0
 4.11	0.9833	0.0167	0
 4.12	0.9864	0.0136	0
 4.13	0.9861	0.0139	0
 4.14	0.9817	0.0183	0
 4.15	0.9766	0.0234	0
 4.16	0.9764	0.0236	0
 4.17	0.9833	0.0167	0
 4.18	0.9888	0.0112	0
 4.19	0.9671	0.0329	0
 4.20	0.8786	0.1214	0
 4.21	0.7098	0.2902	0
 4.22	0.5152	0.4848	0
 4.23	0.3549	0.6451	0
 4.24	0.2440	0.7560	0
 4.25	0.1738	0.8262	0
 4.26	0.1290	0.8710	0
 4.27	0.1000	0.9000	0
 4.28	0.0808	0.9192	0
 4.29	0.0680	0.9320	0
 4.30	0.0595	0.9405	0
 4.31	0.0542	0.9458	0
 4.32	0.0510	0.9490	0
 4.33	0.0497	0.9503	0
 4.34	0.0501	0.9499	0
 4.35	0.0521	0.9479	0
 4.36	0.0560	0.9440	0
 4.37	0.0620	0.9380	0
 4.38	0.0709	0.9291	0
 4.39	0.0835	0.9165	0
 4.40	0.1015	0.8985	0
 4.41	0.1268	0.8732	0
 4.42	0.1628	0.8372	0
 4.43	0.2134	0.7866	0
 4.44	0.2846	0.7154	0
 4.45	0.3830	0.6170	0
 4.46	0.5092	0.4908	0
 4.47	0.6559	0.3441	0
 4.48	0.7961	0.2039	0
 4.49	0.9006	0.0994	0
 4.50	0.9577	0.0423	0
 4.51	0.9798	0.0202	0
 4.52	0.9846	0.0154	0
 4.53	0.9843	0.0157	0
 4.54	0.9837	0.0163	0
 4.55	0.9834	0.0166	0
 4.56	0.9828	0.0172	0
 4.57	0.9814	0.0186	0
 4.58	0.9794	0.0206	0
 4.59	0.9778	0.0222	0
 4.60	0.9775	0.0225	0
 4.61	0.9787	0.0213	0
 4.62	0.9815	0.0185	0
 4.63	0.9850	0.0150	0
 4.64	0.9883	0.0117	0
 4.65	0.9903	0.0097	0
 4.66	0.9903	0.0097	0
 4.67	0.9883	0.0117	0
 4.68	0.9849	0.0151	0
 4.69	0.9812	0.0188	0
 4.70	0.9783	0.0217	0
 4.71	0.9770	0.0230	0
 4.72	0.9776	0.0224	0
 4.73	0.9799	0.0201	0
 4.74	0.9833	0.0167	0
 4.75	0.9867	0.0133	0
 4.76	0.9893	0.0107	0
 4.77	0.9901	0.0099	0
 4.78	0.9888	0.0112	0
 4.79	0.9859	0.0141	0
 4.80	0.9819	0.0181	0
 4.81	0.9779	0.0221	0
 4.82	0.9747	0.0253	0
 4.83	0.9730	0.0270	0
 4.84	0.9733	0.0267	0
 4.85	0.9754	0.0246	0
 4.86	0.9787	0.0213	0
 4.87	0.9825	0.0175	0
 4.88	0.9859	0.0141	0
 4.89	0.9883	0.0117	0
 4.90	0.9888	0.0112	0
 4.91	0.9877	0.0123	0
 4.92	0.9851	0.0149	0
 4.93	0.9818	0.0182	0
 4.94	0.9785	0.0215	0
 4.95	0.9759	0.0241	0
 4.96	0.9746	0.0254	0
 4.97	0.9747	0.0253	0
 4.98	0.9764	0.0236	0
 4.99	0.9791	0.0209	0
 5.00	0.9823	0.0177	0
 5.01	0.9854	0.0146	0
 5.02	0.9876	0.0124	0
 5.03	0.9885	0.0115	0
 5.04	0.9880	0.0120	0
 5.05	0.9862	0.0138	0
 5.06	0.9834	0.0166	0
 5.07	0.9801	0.0199	0
 5.08	0.9769	0.0231	0
 5.09	0.9742	0.0258	0
 5.10	0.9724	0.0276	0
 5.11	0.9717	0.0283	0
 5.12	0.9720	0.0280	0
 5.13	0.9731	0.0269	0
 5.14	0.9746	0.0254	0
 5.15	0.9764	0.0236	0
 5.16	0.9780	0.0220	0
 5.17	0.9793	0.0207	0
 5.18	0.9800	0.0200	0
 5.19	0.9802	0.0198	0
 5.20	0.9800	0.0200	0
 5.21	0.9797	0.0203	0
 5.22	0.9793	0.0207	0
 5.23	0.9789	0.0211	0
 5.24	0.9785	0.0215	0
 5.25	0.9782	0.0218	0
 5.26	0.9779	0.0221	0
 5.27	0.9777	0.0223	0
 5.28	0.9775	0.0225	0
 5.29	0.9774	0.0226	0
 5.30	0.9774	0.0226	0
 5.31	0.9777	0.0223	0
 5.32	0.9784	0.0216	0
 5.33	0.9796	0.0204	0
 5.34	0.9812	0.0188	0
 5.35	0.9832	0.0168	0
 5.36	0.9851	0.0149	0
 5.37	0.9866	0.0134	0
 5.38	0.9873	0.0127	0
 5.39	0.9868	0.0132	0
 5.40	0.9851	0.0149	0
 5.41	0.9824	0.0176	0
 5.42	0.9794	0.0206	0
 5.43	0.9767	0.0233	0
 5.44	0.9756	0.0244	0
 5.45	0.9765	0.0235	0
 5.46	0.9798	0.0202	0
 5.47	0.9846	0.0154	0
 5.48	0.9888	0.0112	0
 5.49	0.9883	0.0117	0
 5.50	0.9777	0.0223	0
 5.51	0.9495	0.0505	0
 5.52	0.9004	0.0996	0
 5.53	0.8295	0.1705	0
 5.54	0.7434	0.2566	0
 5.55	0.6511	0.3489	0
 5.56	0.5620	0.4380	0
 5.57	0.4837	0.5163	0
 5.58	0.4183	0.5817	0
 5.59	0.3666	0.6334	0
 5.60	0.3278	0.6722	0
 5.61	0.3003	0.6997	0
 5.62	0.2832	0.7168	0
 5.63	0.2765	0.7235	0
 5.64	0.2807	0.7193	0
 5.65	0.2985	0.7015	0
 5.66	0.3349	0.6651	0
 5.67	0.4002	0.5998	0
 5.68	0.5073	0.4927	0
 5.69	0.6388	0.3612	0
 5.70	0.6743	0.3257	0
 5.71	0.5646	0.4354	0
 5.72	0.4148	0.5852	0
 5.73	0.2740	0.7260	0
 5.74	0.1702	0.8298	0
 5.75	0.1067	0.8933	0
 5.76	0.0691	0.9309	0
 5.77	0.0466	0.9534	0
 5.78	0.0328	0.9672	0
 5.79	0.0238	0.9762	0
 5.80	0.0178	0.9822	0
 5.81	0.0137	0.9863	0
 5.82	0.0109	0.9891	0
 5.83	0.0088	0.9912	0
 5.84	0.0072	0.9928	0
 5.85	0.0061	0.9939	0
 5.86	0.0051	0.9949	0
 5.87	0.0045	0.9955	0
 5.88	0.0040	0.9960	0
 5.89	0.0035	0.9965	0
 5.90	0.0032	0.9968	0
 5.91	0.0029	0.9971	0
 5.92	0.0027	0.9973	0
 5.93	0.0025	0.9975	0
 5.94	0.0024	0.9976	0
 5.95	0.0023	0.9977	0
 5.96	0.0022	0.9978	0
 5.97	0.0022	0.9978	0
 5.98	0.0022	0.9978	0
 5.99	0.0022	0.9978	0
 6.00	0.0022	0.9978	0
 6.01	0.0023	0.9977	0
 6.02	0.0023	0.9977	0
 6.03	0.0024	0.9976	0
 6.04	0.0026	0.9974	0
 6.05	0.0027	0.9973	0
 6.06	0.0030	0.9970	0
 6.07	0.0034	0.9966	0
 6.08	0.0037	0.9963	0
 6.09	0.0042	0.9958	0
 6.10	0.0049	0.9951	0
 6.11	0.0057	0.9943	0
 6.12	0.0068	0.9932	0
 6.13	0.0084	0.9916	0
 6.14	0.0105	0.9895	0
 6.15	0.0136	0.9864	0
 6.16	0.0182	0.9818	0
 6.17	0.0256	0.9744	0
 6.18	0.0376	0.9624	0
 6.19	0.0593	0.9407	0
 6.20	0.0993	0.9007	0
 6.21	0.1658	0.8342	0
 6.22	0.2332	0.7668	0
 6.23	0.2430	0.7570	0
 6.24	0.2387	0.7613	0
 6.25	0.2189	0.7811	0
 6.26	0.1413	0.8587	0
 6.27	0.0899	0.9101	0
 6.28	0.0626	0.9374	0
 6.29	0.0481	0.9519	0
 6.30	0.0393	0.9607	0
 6.31	0.0336	0.9664	0
 6.32	0.0298	0.9702	0
 6.33	0.0272	0.9728	0
 6.34	0.0255	0.9745	0
 6.35	0.0243	0.9757	0
 6.36	0.0237	0.9763	0
 6.37	0.0234	0.9766	0
 6.38	0.0236	0.9764	0
 6.39	0.0240	0.9760	0
 6.40	0.0247	0.9753	0
 6.41	0.0257	0.9743	0
 6.42	0.0271	0.9729	0
 6.43	0.0288	0.9712	0
 6.44	0.0308	0.9692	0
 6.45	0.0332	0.9668	0
 6.46	0.0361	0.9639	0
 6.47	0.0394	0.9606	0
 6.48	0.0431	0.9569	0
 6.49	0.0475	0.9525	0
 6.50	0.0525	0.9475	0
 6.51	0.0583	0.9417	0
 6.52	0.0653	0.9347	0
 6.53	0.0734	0.9266	0
 6.54	0.0840	0.9160	0
 6.55	0.0970	0.9030	0
 6.56	0.1144	0.8856	0
 6.57	0.1371	0.8629	0
 6.58	0.1687	0.8313	0
 6.59	0.2127	0.7873	0
 6.60	0.2736	0.7264	0
 6.61	0.3592	0.6408	0
 6.62	0.4658	0.5342	0
 6.63	0.5781	0.4219	0
 6.64	0.6690	0.3310	0
 6.65	0.7259	0.2741	0
 6.66	0.7217	0.2783	0
 6.67	0.6111	0.3889	0
 6.68	0.4438	0.5562	0
 6.69	0.3118	0.6882	0
 6.70	0.2256	0.7744	0
 6.71	0.1723	0.8277	0
 6.72	0.1360	0.8640	0
 6.73	0.1120	0.8880	0
 6.74	0.0949	0.9051	0
 6.75	0.0823	0.9177	0
 6.76	0.0734	0.9266	0
 6.77	0.0667	0.9333	0
 6.78	0.0617	0.9383	0
 6.79	0.0580	0.9420	0
 6.80	0.0555	0.9445	0
 6.81	0.0539	0.9461	0
 6.82	0.0531	0.9469	0
 6.83	0.0530	0.9470	0
 6.84	0.0537	0.9463	0
 6.85	0.0551	0.9449	0
 6.86	0.0573	0.9427	0
 6.87	0.0604	0.9396	0
 6.88	0.0646	0.9354	0
 6.89	0.0698	0.9302	0
 6.90	0.0766	0.9234	0
 6.91	0.0853	0.9147	0
 6.92	0.0963	0.9037	0
 6.93	0.1100	0.8900	0
 6.94	0.1280	0.8720	0
 6.95	0.1506	0.8494	0
 6.96	0.1790	0.8210	0
 6.97	0.2153	0.7847	0
 6.98	0.2623	0.7377	0
 6.99	0.3202	0.6798	0
 7.00	0.3898	0.6102	0
 7.01	0.4720	0.5280	0
 7.02	0.5580	0.4420	0
 7.03	0.6270	0.3730	0
 7.04	0.6545	0.3455	0
 7.05	0.6277	0.3723	0
 7.06	0.5739	0.4261	0
 7.07	0.5172	0.4828	0
 7.08	0.4682	0.5318	0
 7.09	0.4316	0.5684	0
 7.10	0.4062	0.5938	0
 7.11	0.3903	0.6097	0
 7.12	0.3833	0.6167	0
 7.13	0.3852	0.6148	0
 7.14	0.3966	0.6034	0
 7.15	0.4178	0.5822	0
 7.16	0.4502	0.5498	0
 7.17	0.4957	0.5043	0
 7.18	0.5595	0.4405	0
 7.19	0.6438	0.3562	0
 7.20	0.7456	0.2544	0
 7.21	0.8445	0.1555	0
 7.22	0.8912	0.1088	0
 7.23	0.8273	0.1727	0
 7.24	0.6905	0.3095	0
 7.25	0.5481	0.4519	0
 7.26	0.4286	0.5714	0
 7.27	0.3348	0.6652	0
 7.28	0.2638	0.7362	0
 7.29	0.2114	0.7886	0
 7.30	0.1718	0.8282	0
 7.31	0.1415	0.8585	0
 7.32	0.1180	0.8820	0
 7.33	0.0999	0.9001	0
 7.34	0.0858	0.9142	0
 7.35	0.0748	0.9252	0
 7.36	0.0660	0.9340	0
 7.37	0.0589	0.9411	0
 7.38	0.0531	0.9469	0
 7.39	0.0484	0.9516	0
 7.40	0.0445	0.9555	0
 7.41	0.0413	0.9587	0
 7.42	0.0386	0.9614	0
 7.43	0.0364	0.9636	0
 7.44	0.0346	0.9654	0
 7.45	0.0332	0.9668	0
 7.46	0.0320	0.9680	0
 7.47	0.0310	0.9690	0
 7.48	0.0303	0.9697	0
 7.49	0.0297	0.9703	0
 7.50	0.0293	0.9707	0
 7.51	0.0290	0.9710	0
 7.52	0.0288	0.9712	0
 7.53	0.0287	0.9713	0
 7.54	0.0287	0.9713	0
 7.55	0.0288	0.9712	0
 7.56	0.0289	0.9711	0
 7.57	0.0290	0.9710	0
 7.58	0.0291	0.9709	0
 7.59	0.0292	0.9708	0
 7.60	0.0292	0.9708	0
 7.61	0.0292	0.9708	0
 7.62	0.0291	0.9709	0
 7.63	0.0288	0.9712	0
 7.64	0.0285	0.9715	0
 7.65	0.0282	0.9718	0
 7.66	0.0277	0.9723	0
 7.67	0.0272	0.9728	0
 7.68	0.0267	0.9733	0
 7.69	0.0261	0.9739	0
 7.70	0.0256	0.9744	0
 7.71	0.0251	0.9749	0
 7.72	0.0246	0.9754	0
 7.73	0.0240	0.9760	0
 7.74	0.0236	0.9764	0
 7.75	0.0232	0.9768	0
 7.76	0.0227	0.9773	0
 7.77	0.0224	0.9776	0
 7.78	0.0220	0.9780	0
 7.79	0.0217	0.9783	0
 7.80	0.0214	0.9786	0
 7.81	0.0211	0.9789	0
 7.82	0.0209	0.9791	0
 7.83	0.0206	0.9794	0
 7.84	0.0204	0.9796	0
 7.85	0.0202	0.9798	0
 7.86	0.0200	0.9800	0
 7.87	0.0198	0.9802	0
 7.88	0.0196	0.9804	0
 7.89	0.0194	0.9806	0
 7.90	0.0191	0.9809	0
 7.91	0.0189	0.9811	0
 7.92	0.0186	0.9814	0
 7.93	0.0183	0.9817	0
 7.94	0.0180	0.9820	0
 7.95	0.0177	0.9823	0
 7.96	0.0173	0.9827	0
 7.97	0.0170	0.9830	0
 7.98	0.0166	0.9834	0
 7.99	0.0162	0.9838	0
 8.00	0.0158	0.9842	0
 8.01	0.0154	0.9846	0
 8.02	0.0150	0.9850	0
 8.03	0.0146	0.9854	0
 8.04	0.0142	0.9858	0
 8.05	0.0138	0.9862	0
 8.06	0.0134	0.9866	0
 8.07	0.0131	0.9869	0
 8.08	0.0128	0.9872	0
 8.09	0.0124	0.9876	0
 8.10	0.0122	0.9878	0
 8.11	0.0120	0.9880	0
 8.12	0.0117	0.9883	0
 8.13	0.0116	0.9884	0
 8.14	0.0115	0.9885	0
 8.15	0.0114	0.9886	0
 8.16	0.0113	0.9887	0
 8.17	0.0113	0.9887	0
 8.18	0.0113	0.9887	0
 8.19	0.0114	0.9886	0
 8.20	0.0115	0.9885	0
 8.21	0.0116	0.9884	0
 8.22	0.0117	0.9883	0
 8.23	0.0120	0.9880	0
 8.24	0.0123	0.9877	0
 8.25	0.0127	0.9873	0
 8.26	0.0131	0.9869	0
 8.27	0.0135	0.9865	0
 8.28	0.0141	0.9859	0
 8.29	0.0148	0.9852	0
 8.30	0.0156	0.9844	0
 8.31	0.0164	0.9836	0
 8.32	0.0174	0.9826	0
 8.33	0.0185	0.9815	0
 8.34	0.0198	0.9802	0
 8.35	0.0213	0.9787	0
 8.36	0.0229	0.9771	0
 8.37	0.0247	0.9753	0
 8.38	0.0267	0.9733	0
 8.39	0.0289	0.9711	0
 8.40	0.0313	0.9687	0
 8.41	0.0338	0.9662	0
 8.42	0.0364	0.9636	0
 8.43	0.0390	0.9610	0
 8.44	0.0415	0.9585	0
 8.45	0.0437	0.9563	0
 8.46	0.0457	0.9543	0
 8.47	0.0473	0.9527	0
 8.48	0.0481	0.9519	0
 8.49	0.0486	0.9514	0
 8.50	0.0483	0.9517	0
 8.51	0.0475	0.9525	0
 8.52	0.0461	0.9539	0
 8.53	0.0443	0.9557	0
 8.54	0.0420	0.9580	0
 8.55	0.0396	0.9604	0
 8.56	0.0370	0.9630	0
 8.57	0.0345	0.9655	0
 8.58	0.0322	0.9678	0
 8.59	0.0300	0.9700	0
 8.60	0.0280	0.9720	0
 8.61	0.0262	0.9738	0
 8.62	0.0246	0.9754	0
 8.63	0.0233	0.9767	0
 8.64	0.0221	0.9779	0
 8.65	0.0210	0.9790	0
 8.66	0.0201	0.9799	0
 8.67	0.0194	0.9806	0
 8.68	0.0188	0.9812	0
 8.69	0.0183	0.9817	0
 8.70	0.0178	0.9822	0
 8.71	0.0175	0.9825	0
 8.72	0.0173	0.9827	0
 8.73	0.0171	0.9829	0
 8.74	0.0170	0.9830	0
 8.75	0.0170	0.9830	0
 8.76	0.0171	0.9829	0
 8.77	0.0172	0.9828	0
 8.78	0.0175	0.9825	0
 8.79	0.0177	0.9823	0
 8.80	0.0180	0.9820	0
 8.81	0.0185	0.9815	0
 8.82	0.0191	0.9809	0
 8.83	0.0196	0.9804	0
 8.84	0.0203	0.9797	0
 8.85	0.0211	0.9789	0
 8.86	0.0219	0.9781	0
 8.87	0.0229	0.9771	0
 8.88	0.0239	0.9761	0
 8.89	0.0250	0.9750	0
 8.90	0.0262	0.9738	0
 8.91	0.0275	0.9725	0
 8.92	0.0289	0.9711	0
 8.93	0.0303	0.9697	0
 8.94	0.0317	0.9683	0
 8.95	0.0332	0.9668	0
 8.96	0.0346	0.9654	0
 8.97	0.0360	0.9640	0
 8.98	0.0373	0.9627	0
 8.99	0.0384	0.9616	0
 9.00	0.0394	0.9606	0
 9.01	0.0402	0.9598	0
 9.02	0.0406	0.9594	0
 9.03	0.0409	0.9591	0
 9.04	0.0409	0.9591	0
 9.05	0.0406	0.9594	0
 9.06	0.0400	0.9600	0
 9.07	0.0392	0.9608	0
 9.08	0.0382	0.9618	0
 9.09	0.0371	0.9629	0
 9.10	0.0359	0.9641	0
 9.11	0.0346	0.9654	0
 9.12	0.0333	0.9667	0
 9.13	0.0321	0.9679	0
 9.14	0.0309	0.9691	0
 9.15	0.0297	0.9703	0
 9.16	0.0287	0.9713	0
 9.17	0.0277	0.9723	0
 9.18	0.0269	0.9731	0
 9.19	0.0261	0.9739	0
 9.20	0.0255	0.9745	0
 9.21	0.0249	0.9751	0
 9.22	0.0244	0.9756	0
 9.23	0.0240	0.9760	0
 9.24	0.0238	0.9762	0
 9.25	0.0235	0.9765	0
 9.26	0.0234	0.9766	0
 9.27	0.0233	0.9767	0
 9.28	0.0233	0.9767	0
 9.29	0.0234	0.9766	0
 9.30	0.0236	0.9764	0
 9.31	0.0239	0.9761	0
 9.32	0.0242	0.9758	0
 9.33	0.0247	0.9753	0
 9.34	0.0252	0.9748	0
 9.35	0.0257	0.9743	0
 9.36	0.0264	0.9736	0
 9.37	0.0272	0.9728	0
 9.38	0.0281	0.9719	0
 9.39	0.0291	0.9709	0
 9.40	0.0302	0.9698	0
 9.41	0.0314	0.9686	0
 9.42	0.0326	0.9674	0
 9.43	0.0339	0.9661	0
 9.44	0.0354	0.9646	0
 9.45	0.0368	0.9632	0
 9.46	0.0384	0.9616	0
 9.47	0.0399	0.9601	0
 9.48	0.0414	0.9586	0
 9.49	0.0428	0.9572	0
 9.50	0.0440	0.9560	0
 9.51	0.0452	0.9548	0
 9.52	0.0461	0.9539	0
 9.53	0.0466	0.9534	0
 9.54	0.0469	0.9531	0
 9.55	0.0469	0.9531	0
 9.56	0.0464	0.9536	0
 9.57	0.0456	0.9544	0
 9.58	0.0446	0.9554	0
 9.59	0.0431	0.9569	0
 9.60	0.0415	0.9585	0
 9.61	0.0398	0.9602	0
 9.62	0.0379	0.9621	0
 9.63	0.0360	0.9640	0
 9.64	0.0340	0.9660	0
 9.65	0.0322	0.9678	0
 9.66	0.0305	0.9695	0
 9.67	0.0287	0.9713	0
 9.68	0.0272	0.9728	0
 9.69	0.0258	0.9742	0
 9.70	0.0244	0.9756	0
 9.71	0.0232	0.9768	0
 9.72	0.0221	0.9779	0
 9.73	0.0211	0.9789	0
 9.74	0.0201	0.9799	0
 9.75	0.0193	0.9807	0
 9.76	0.0185	0.9815	0
 9.77	0.0179	0.9821	0
 9.78	0.0173	0.9827	0
 9.79	0.0167	0.9833	0
 9.80	0.0162	0.9838	0
 9.81	0.0158	0.9842	0
 9.82	0.0154	0.9846	0
 9.83	0.0151	0.9849	0
 9.84	0.0148	0.9852	0
 9.85	0.0145	0.9855	0
 9.86	0.0144	0.9856	0
 9.87	0.0142	0.9858	0
 9.88	0.0141	0.9859	0
 9.89	0.0140	0.9860	0
 9.90	0.0139	0.9861	0
 9.91	0.0139	0.9861	0
 9.92	0.0139	0.9861	0
 9.93	0.0140	0.9860	0
 9.94	0.0141	0.9859	0
 9.95	0.0141	0.9859	0
 9.96	0.0143	0.9857	0
 9.97	0.0145	0.9855	0
 9.98	0.0147	0.9853	0
 9.99	0.0149	0.9851	0
10.00	0.0152	0.9848	0
10.01	0.0155	0.9845	0
10.02	0.0159	0.9841	0
10.03	0.0163	0.9837	0
10.04	0.0167	0.9833	0
10.05	0.0172	0.9828	0
10.06	0.0176	0.9824	0
10.07	0.0182	0.9818	0
10.08	0.0189	0.9811	0
10.09	0.0195	0.9805	0
10.10	0.0201	0.9799	0
10.11	0.0209	0.9791	0
10.12	0.0217	0.9783	0
10.13	0.0225	0.9775	0
10.14	0.0234	0.9766	0
10.15	0.0243	0.9757	0
10.16	0.0252	0.9748	0
10.17	0.0262	0.9738	0
10.18	0.0272	0.9728	0
10.19	0.0282	0.9718	0
10.20	0.0291	0.9709	0
10.21	0.0301	0.9699	0
10.22	0.0310	0.9690	0
10.23	0.0320	0.9680	0
10.24	0.0327	0.9673	0
10.25	0.0335	0.9665	0
10.26	0.0342	0.9658	0
10.27	0.0347	0.9653	0
10.28	0.0351	0.9649	0
10.29	0.0354	0.9646	0
10.30	0.0355	0.9645	0
10.31	0.0355	0.9645	0
10.32	0.0354	0.9646	0
10.33	0.0352	0.9648	0
10.34	0.0348	0.9652	0
10.35	0.0344	0.9656	0
10.36	0.0339	0.9661	0
10.37	0.0333	0.9667	0
10.38	0.0327	0.9673	0
10.39	0.0321	0.9679	0
10.40	0.0314	0.9686	0
10.41	0.0308	0.9692	0
10.42	0.0302	0.9698	0
10.43	0.0296	0.9704	0
10.44	0.0290	0.9710	0
10.45	0.0284	0.9716	0
10.46	0.0279	0.9721	0
10.47	0.0274	0.9726	0
10.48	0.0270	0.9730	0
10.49	0.0266	0.9734	0
10.50	0.0262	0.9738	0
10.51	0.0259	0.9741	0
10.52	0.0256	0.9744	0
10.53	0.0254	0.9746	0
10.54	0.0253	0.9747	0
10.55	0.0251	0.9749	0
10.56	0.0250	0.9750	0
10.57	0.0250	0.9750	0
10.58	0.0250	0.9750	0
10.59	0.0250	0.9750	0
10.60	0.0251	0.9749	0
10.61	0.0252	0.9748	0
10.62	0.0254	0.9746	0
10.63	0.0256	0.9744	0
10.64	0.0259	0.9741	0
10.65	0.0262	0.9738	0
10.66	0.0265	0.9735	0
10.67	0.0269	0.9731	0
10.68	0.0273	0.9727	0
10.69	0.0278	0.9722	0
10.70	0.0283	0.9717	0
10.71	0.0288	0.9712	0
10.72	0.0294	0.9706	0
10.73	0.0300	0.9700	0
10.74	0.0306	0.9694	0
10.75	0.0312	0.9688	0
10.76	0.0318	0.9682	0
10.77	0.0325	0.9675	0
10.78	0.0331	0.9669	0
10.79	0.0337	0.9663	0
10.80	0.0343	0.9657	0
10.81	0.0348	0.9652	0
10.82	0.0351	0.9649	0
10.83	0.0355	0.9645	0
10.84	0.0357	0.9643	0
10.85	0.0359	0.9641	0
10.86	0.0359	0.9641	0
10.87	0.0358	0.9642	0
10.88	0.0355	0.9645	0
10.89	0.0352	0.9648	0
10.90	0.0346	0.9654	0
10.91	0.0340	0.9660	0
10.92	0.0332	0.9668	0
10.93	0.0324	0.9676	0
10.94	0.0315	0.9685	0
10.95	0.0305	0.9695	0
10.96	0.0295	0.9705	0
10.97	0.0284	0.9716	0
10.98	0.0274	0.9726	0
10.99	0.0264	0.9736	0
11.00	0.0253	0.9747	0
11.01	0.0242	0.9758	0
11.02	0.0232	0.9768	0
11.03	0.0222	0.9778	0
11.04	0.0212	0.9788	0
11.05	0.0203	0.9797	0
11.06	0.0195	0.9805	0
11.07	0.0186	0.9814	0
11.08	0.0178	0.9822	0
11.09	0.0170	0.9830	0
11.10	0.0164	0.9836	0
11.11	0.0157	0.9843	0
11.12	0.0151	0.9849	0
11.13	0.0145	0.9855	0
11.14	0.0140	0.9860	0
11.15	0.0134	0.9866	0
11.16	0.0130	0.9870	0
11.17	0.0126	0.9874	0
11.18	0.0122	0.9878	0
11.19	0.0118	0.9882	0
11.20	0.0114	0.9886	0
11.21	0.0111	0.9889	0
11.22	0.0108	0.9892	0
11.23	0.0106	0.9894	0
11.24	0.0103	0.9897	0
11.25	0.0101	0.9899	0
11.26	0.0099	0.9901	0
11.27	0.0097	0.9903	0
11.28	0.0095	0.9905	0
11.29	0.0093	0.9907	0
11.30	0.0092	0.9908	0
11.31	0.0091	0.9909	0
11.32	0.0090	0.9910	0
11.33	0.0089	0.9911	0
11.34	0.0088	0.9912	0
11.35	0.0087	0.9913	0
11.36	0.0086	0.9914	0
11.37	0.0086	0.9914	0
11.38	0.0085	0.9915	0
11.39	0.0085	0.9915	0
11.40	0.0085	0.9915	0
11.41	0.0085	0.9915	0
11.42	0.0085	0.9915	0
11.43	0.0085	0.9915	0
11.44	0.0085	0.9915	0
11.45	0.0086	0.9914	0
11.46	0.0087	0.9913	0
11.47	0.0088	0.9912	0
11.48	0.0089	0.9911	0
11.49	0.0090	0.9910	0
11.50	0.0091	0.9909	0
11.51	0.0092	0.9908	0
11.52	0.0093	0.9907	0
11.53	0.0095	0.9905	0
11.54	0.0097	0.9903	0
11.55	0.0098	0.9902	0
11.56	0.0101	0.9899	0
11.57	0.0103	0.9897	0
11.58	0.0106	0.9894	0
11.59	0.0109	0.9891	0
11.60	0.0112	0.9888	0
11.61	0.0115	0.9885	0
11.62	0.0119	0.9881	0
11.63	0.0123	0.9877	0
11.64	0.0128	0.9872	0
11.65	0.0133	0.9867	0
11.66	0.0138	0.9862	0
11.67	0.0143	0.9857	0
11.68	0.0149	0.9851	0
11.69	0.0156	0.9844	0
11.70	0.0164	0.9836	0
11.71	0.0172	0.9828	0
11.72	0.0180	0.9820	0
11.73	0.0190	0.9810	0
11.74	0.0200	0.9800	0
11.75	0.0212	0.9788	0
11.76	0.0224	0.9776	0
11.77	0.0237	0.9763	0
11.78	0.0251	0.9749	0
11.79	0.0267	0.9733	0
11.80	0.0283	0.9717	0
11.81	0.0301	0.9699	0
11.82	0.0320	0.9680	0
11.83	0.0340	0.9660	0
11.84	0.0361	0.9639	0
11.85	0.0382	0.9618	0
11.86	0.0404	0.9596	0
11.87	0.0426	0.9574	0
11.88	0.0447	0.9553	0
11.89	0.0469	0.9531	0
11.90	0.0487	0.9513	0
11.91	0.0504	0.9496	0
11.92	0.0516	0.9484	0
11.93	0.0526	0.9474	0
11.94	0.0533	0.9467	0
11.95	0.0534	0.9466	0
11.96	0.0534	0.9466	0
11.97	0.0528	0.9472	0
11.98	0.0520	0.9480	0
11.99	0.0509	0.9491	0
12.00	0.0496	0.9504	0
12.01	0.0484	0.9516	0
12.02	0.0471	0.9529	0
12.03	0.0457	0.9543	0
12.04	0.0444	0.9556	0
12.05	0.0432	0.9568	0
12.06	0.0422	0.9578	0
12.07	0.0412	0.9588	0
12.08	0.0403	0.9597	0
12.09	0.0396	0.9604	0
12.10	0.0390	0.9610	0
12.11	0.0386	0.9614	0
12.12	0.0382	0.9618	0
12.13	0.0377	0.9623	0
12.14	0.0373	0.9627	0
12.15	0.0369	0.9631	0
12.16	0.0365	0.9635	0
12.17	0.0359	0.9641	0
12.18	0.0352	0.9648	0
12.19	0.0345	0.9655	0
12.20	0.0337	0.9663	0
12.21	0.0328	0.9672	0
12.22	0.0318	0.9682	0
12.23	0.0307	0.9693	0
12.24	0.0296	0.9704	0
12.25	0.0285	0.9715	0
12.26	0.0274	0.9726	0
12.27	0.0263	0.9737	0
12.28	0.0252	0.9748	0
12.29	0.0241	0.9759	0
12.30	0.0232	0.9768	0
12.31	0.0222	0.9778	0
12.32	0.0213	0.9787	0
12.33	0.0205	0.9795	0
12.34	0.0197	0.9803	0
12.35	0.0190	0.9810	0
12.36	0.0183	0.9817	0
12.37	0.0177	0.9823	0
12.38	0.0171	0.9829	0
12.39	0.0166	0.9834	0
12.40	0.0161	0.9839	0
12.41	0.0156	0.9844	0
12.42	0.0152	0.9848	0
12.43	0.0147	0.9853	0
12.44	0.0144	0.9856	0
12.45	0.0141	0.9859	0
12.46	0.0138	0.9862	0
12.47	0.0134	0.9866	0
12.48	0.0132	0.9868	0
12.49	0.0129	0.9871	0
12.50	0.0127	0.9873	0
12.51	0.0125	0.9875	0
12.52	0.0123	0.9877	0
12.53	0.0121	0.9879	0
12.54	0.0120	0.9880	0
12.55	0.0118	0.9882	0
12.56	0.0117	0.9883	0
12.57	0.0116	0.9884	0
12.58	0.0115	0.9885	0
12.59	0.0114	0.9886	0
12.60	0.0114	0.9886	0
12.61	0.0113	0.9887	0
12.62	0.0112	0.9888	0
12.63	0.0112	0.9888	0
12.64	0.0112	0.9888	0
12.65	0.0112	0.9888	0
12.66	0.0111	0.9889	0
12.67	0.0111	0.9889	0
12.68	0.0111	0.9889	0
12.69	0.0111	0.9889	0
12.70	0.0112	0.9888	0
12.71	0.0112	0.9888	0
12.72	0.0112	0.9888	0
12.73	0.0113	0.9887	0
12.74	0.0113	0.9887	0
12.75	0.0114	0.9886	0
12.76	0.0114	0.9886	0
12.77	0.0115	0.9885	0
12.78	0.0116	0.9884	0
12.79	0.0117	0.9883	0
12.80	0.0118	0.9882	0
12.81	0.0119	0.9881	0
12.82	0.0120	0.9880	0
12.83	0.0121	0.9879	0
12.84	0.0123	0.9877	0
12.85	0.0124	0.9876	0
12.86	0.0126	0.9874	0
12.87	0.0127	0.9873	0
12.88	0.0129	0.9871	0
12.89	0.0131	0.9869	0
12.90	0.0132	0.9868	0
12.91	0.0134	0.9866	0
12.92	0.0136	0.9864	0
12.93	0.0138	0.9862	0
12.94	0.0140	0.9860	0
12.95	0.0142	0.9858	0
12.96	0.0144	0.9856	0
12.97	0.0147	0.9853	0
12.98	0.0149	0.9851	0
12.99	0.0152	0.9848	0
13.00	0.0154	0.9846	0
13.01	0.0156	0.9844	0
13.02	0.0159	0.9841	0
13.03	0.0162	0.9838	0
13.04	0.0165	0.9835	0
13.05	0.0167	0.9833	0
13.06	0.0170	0.9830	0
13.07	0.0173	0.9827	0
13.08	0.0176	0.9824	0
13.09	0.0178	0.9822	0
13.10	0.0182	0.9818	0
13.11	0.0185	0.9815	0
13.12	0.0188	0.9812	0
13.13	0.0191	0.9809	0
13.14	0.0194	0.9806	0
13.15	0.0197	0.9803	0
13.16	0.0200	0.9800	0
13.17	0.0203	0.9797	0
13.18	0.0206	0.9794	0
13.19	0.0210	0.9790	0
13.20	0.0213	0.9787	0
13.21	0.0216	0.9784	0
13.22	0.0219	0.9781	0
13.23	0.0222	0.9778	0
13.24	0.0225	0.9775	0
13.25	0.0228	0.9772	0
13.26	0.0231	0.9769	0
13.27	0.0234	0.9766	0
13.28	0.0237	0.9763	0
13.29	0.0239	0.9761	0
13.30	0.0242	0.9758	0
13.31	0.0244	0.9756	0
13.32	0.0247	0.9753	0
13.33	0.0250	0.9750	0
13.34	0.0252	0.9748	0
13.35	0.0255	0.9745	0
13.36	0.0257	0.9743	0
13.37	0.0259	0.9741	0
13.38	0.0261	0.9739	0
13.39	0.0264	0.9736	0
13.40	0.0265	0.9735	0
13.41	0.0268	0.9732	0
13.42	0.0270	0.9730	0
13.43	0.0272	0.9728	0
13.44	0.0274	0.9726	0
13.45	0.0276	0.9724	0
13.46	0.0278	0.9722	0
13.47	0.0280	0.9720	0
13.48	0.0281	0.9719	0
13.49	0.0283	0.9717	0
13.50	0.0285	0.9715	0
13.51	0.0287	0.9713	0
13.52	0.0288	0.9712	0
13.53	0.0290	0.9710	0
13.54	0.0292	0.9708	0
13.55	0.0294	0.9706	0
13.56	0.0296	0.9704	0
13.57	0.0298	0.9702	0
13.58	0.0299	0.9701	0
13.59	0.0302	0.9698	0
13.60	0.0304	0.9696	0
13.61	0.0306	0.9694	0
13.62	0.0309	0.9691	0
13.63	0.0311	0.9689	0
13.64	0.0313	0.9687	0
13.65	0.0316	0.9684	0
13.66	0.0319	0.9681	0
13.67	0.0322	0.9678	0
13.68	0.0325	0.9675	0
13.69	0.0328	0.9672	0
13.70	0.0331	0.9669	0
13.71	0.0334	0.9666	0
13.72	0.0338	0.9662	0
13.73	0.0341	0.9659	0
13.74	0.0345	0.9655	0
13.75	0.0349	0.9651	0
13.76	0.0354	0.9646	0
13.77	0.0358	0.9642	0
13.78	0.0363	0.9637	0
13.79	0.0367	0.9633	0
13.80	0.0373	0.9627	0
13.81	0.0378	0.9622	0
13.82	0.0384	0.9616	0
13.83	0.0390	0.9610	0
13.84	0.0397	0.9603	0
13.85	0.0403	0.9597	0
13.86	0.0410	0.9590	0
13.87	0.0418	0.9582	0
13.88	0.0425	0.9575	0
13.89	0.0433	0.9567	0
13.90	0.0441	0.9559	0
13.91	0.0450	0.9550	0
13.92	0.0459	0.9541	0
13.93	0.0469	0.9531	0
13.94	0.0479	0.9521	0
13.95	0.0490	0.9510	0
13.96	0.0502	0.9498	0
13.97	0.0513	0.9487	0
13.98	0.0525	0.9475	0
13.99	0.0538	0.9462	0
14.00	0.0552	0.9448	0
14.01	0.0566	0.9434	0
14.02	0.0581	0.9419	0
14.03	0.0596	0.9404	0
14.04	0.0613	0.9387	0
14.05	0.0631	0.9369	0
14.06	0.0650	0.9350	0
14.07	0.0669	0.9331	0
14.08	0.0690	0.9310	0
14.09	0.0711	0.9289	0
14.10	0.0733	0.9267	0
14.11	0.0757	0.9243	0
14.12	0.0782	0.9218	0
14.13	0.0807	0.9193	0
14.14	0.0835	0.9165	0
14.15	0.0866	0.9134	0
14.16	0.0896	0.9104	0
14.17	0.0928	0.9072	0
14.18	0.0963	0.9037	0
14.19	0.0998	0.9002	0
14.20	0.1034	0.8966	0
14.21	0.1076	0.8924	0
14.22	0.1118	0.8882	0
14.23	0.1160	0.8840	0
14.24	0.1208	0.8792	0
14.25	0.1257	0.8743	0
14.26	0.1307	0.8693	0
14.27	0.1362	0.8638	0
14.28	0.1420	0.8580	0
14.29	0.1478	0.8522	0
14.30	0.1540	0.8460	0
14.31	0.1608	0.8392	0
14.32	0.1676	0.8324	0
14.33	0.1744	0.8256	0
14.34	0.1824	0.8176	0
14.35	0.1903	0.8097	0
14.36	0.1982	0.8018	0
14.37	0.2069	0.7931	0
14.38	0.2159	0.7841	0
14.39	0.2250	0.7750	0
14.40	0.2345	0.7655	0
14.41	0.2446	0.7554	0
14.42	0.2548	0.7452	0
14.43	0.2650	0.7350	0
14.44	0.2760	0.7240	0
14.45	0.2871	0.7129	0
14.46	0.2982	0.7018	0
14.47	0.3097	0.6903	0
14.48	0.3216	0.6784	0
14.49	0.3334	0.6666	0
14.50	0.3453	0.6547	0
14.51	0.3574	0.6426	0
14.52	0.3695	0.6305	0
14.53	0.3816	0.6184	0
14.54	0.3936	0.6064	0
14.55	0.4057	0.5943	0
14.56	0.4178	0.5822	0
14.57	0.4298	0.5702	0
14.58	0.4417	0.5583	0
14.59	0.4536	0.5464	0
14.60	0.4655	0.5345	0
14.61	0.4772	0.5228	0
14.62	0.4890	0.5110	0
14.63	0.5007	0.4993	0
14.64	0.5127	0.4873	0
14.65	0.5248	0.4752	0
14.66	0.5369	0.4631	0
14.67	0.5491	0.4509	0
14.68	0.5622	0.4378	0
14.69	0.5752	0.4248	0
14.70	0.5882	0.4118	0
14.71	0.6025	0.3975	0
14.72	0.6171	0.3829	0
14.73	0.6318	0.3682	0
14.74	0.6470	0.3530	0
14.75	0.6636	0.3364	0
14.76	0.6803	0.3197	0
14.77	0.6969	0.3031	0
14.78	0.7145	0.2855	0
14.79	0.7324	0.2676	0
14.80	0.7502	0.2498	0
14.81	0.7679	0.2321	0
14.82	0.7850	0.2150	0
14.83	0.8021	0.1979	0
14.84	0.8192	0.1808	0
14.85	0.8339	0.1661	0
14.86	0.8474	0.1526	0
14.87	0.8610	0.1390	0
14.88	0.8738	0.1262	0
14.89	0.8817	0.1183	0
14.90	0.8897	0.1103	0
14.91	0.8976	0.1024	0
14.92	0.9022	0.0978	0
14.93	0.9044	0.0956	0
14.94	0.9065	0.0935	0
14.95	0.9087	0.0913	0
14.96	0.9068	0.0932	0
14.97	0.9049	0.0951	0
14.98	0.9029	0.0971	0
14.99	0.9003	0.0997	0
15.00	0.8964	0.1036	0
15.01	0.8925	0.1075	0
15.02	0.8887	0.1113	0
15.03	0.8845	0.1155	0
15.04	0.8803	0.1197	0
15.05	0.8761	0.1239	0
15.06	0.8720	0.1280	0
15.07	0.8682	0.1318	0
15.08	0.8645	0.1355	0
15.09	0.8608	0.1392	0
15.10	0.8573	0.1427	0
15.11	0.8541	0.1459	0
15.12	0.8510	0.1490	0
15.13	0.8478	0.1522	0
15.14	0.8448	0.1552	0
15.15	0.8419	0.1581	0
15.16	0.8389	0.1611	0
15.17	0.8359	0.1641	0
15.18	0.8327	0.1673	0
15.19	0.8295	0.1705	0
15.20	0.8262	0.1738	0
15.21	0.8227	0.1773	0
15.22	0.8187	0.1813	0
15.23	0.8146	0.1854	0
15.24	0.8106	0.1894	0
15.25	0.8057	0.1943	0
15.26	0.8004	0.1996	0
15.27	0.7951	0.2049	0
15.28	0.7898	0.2102	0
15.29	0.7831	0.2169	0
15.30	0.7763	0.2237	0
15.31	0.7695	0.2305	0
15.32	0.7625	0.2375	0
15.33	0.7542	0.2458	0
15.34	0.7460	0.2540	0
15.35	0.7377	0.2623	0
15.36	0.7289	0.2711	0
15.37	0.7191	0.2809	0
15.38	0.7094	0.2906	0
15.39	0.6996	0.3004	0
15.40	0.6891	0.3109	0
15.41	0.6781	0.3219	0
15.42	0.6670	0.3330	0
15.43	0.6559	0.3441	0
15.44	0.6440	0.3560	0
15.45	0.6317	0.3683	0
15.46	0.6195	0.3805	0
15.47	0.6072	0.3928	0
15.48	0.5942	0.4058	0
15.49	0.5810	0.4190	0
15.50	0.5679	0.4321	0
15.51	0.5548	0.4452	0
15.52	0.5412	0.4588	0
15.53	0.5276	0.4724	0
15.54	0.5140	0.4860	0
15.55	0.5005	0.4995	0
15.56	0.4870	0.5130	0
15.57	0.4735	0.5265	0
15.58	0.4601	0.5399	0
15.59	0.4468	0.5532	0
15.60	0.4340	0.5660	0
15.61	0.4212	0.5788	0
15.62	0.4084	0.5916	0
15.63	0.3960	0.6040	0
15.64	0.3843	0.6157	0
15.65	0.3726	0.6274	0
15.66	0.3610	0.6390	0
15.67	0.3498	0.6502	0
15.68	0.3395	0.6605	0
15.69	0.3292	0.6708	0
15.70	0.3189	0.6811	0
15.71	0.3092	0.6908	0
15.72	0.3003	0.6997	0
15.73	0.2914	0.7086	0
15.74	0.2826	0.7174	0
15.75	0.2743	0.7257	0
15.76	0.2668	0.7332	0
15.77	0.2593	0.7407	0
15.78	0.2518	0.7482	0
15.79	0.2448	0.7552	0
15.80	0.2385	0.7615	0
15.81	0.2323	0.7677	0
15.82	0.2260	0.7740	0
15.83	0.2202	0.7798	0
15.84	0.2150	0.7850	0
15.85	0.2098	0.7902	0
15.86	0.2047	0.7953	0
15.87	0.1998	0.8002	0
15.88	0.1956	0.8044	0
15.89	0.1914	0.8086	0
15.90	0.1871	0.8129	0
15.91	0.1831	0.8169	0
15.92	0.1797	0.8203	0
15.93	0.1762	0.8238	0
15.94	0.1728	0.8272	0
15.95	0.1695	0.8305	0
15.96	0.1667	0.8333	0
15.97	0.1639	0.8361	0
15.98	0.1611	0.8389	0
15.99	0.1584	0.8416	0
16.00	0.1559	0.8441	0
16.01	0.1534	0.8466	0
16.02	0.1510	0.8490	0
16.03	0.1485	0.8515	0
16.04	0.1465	0.8535	0
16.05	0.1445	0.8555	0
16.06	0.1426	0.8574	0
16.07	0.1406	0.8594	0
16.08	0.1391	0.8609	0
16.09	0.1376	0.8624	0
16.10	0.1362	0.8638	0
16.11	0.1347	0.8653	0
16.12	0.1336	0.8664	0
16.13	0.1326	0.8674	0
16.14	0.1317	0.8683	0
16.15	0.1307	0.8693	0
16.16	0.1299	0.8701	0
16.17	0.1294	0.8706	0
16.18	0.1288	0.8712	0
16.19	0.1283	0.8717	0
16.20	0.1278	0.8722	0
16.21	0.1277	0.8723	0
16.22	0.1275	0.8725	0
16.23	0.1273	0.8727	0
16.24	0.1271	0.8729	0
16.25	0.1273	0.8727	0
16.26	0.1275	0.8725	0
16.27	0.1277	0.8723	0
16.28	0.1279	0.8721	0
16.29	0.1283	0.8717	0
16.30	0.1289	0.8711	0
16.31	0.1294	0.8706	0
16.32	0.1299	0.8701	0
16.33	0.1307	0.8693	0
16.34	0.1316	0.8684	0
16.35	0.1324	0.8676	0
16.36	0.1333	0.8667	0
16.37	0.1343	0.8657	0
16.38	0.1355	0.8645	0
16.39	0.1367	0.8633	0
16.40	0.1379	0.8621	0
16.41	0.1391	0.8609	0
16.42	0.1405	0.8595	0
16.43	0.1420	0.8580	0
16.44	0.1435	0.8565	0
16.45	0.1450	0.8550	0
16.46	0.1466	0.8534	0
16.47	0.1483	0.8517	0
16.48	0.1500	0.8500	0
16.49	0.1517	0.8483	0
16.50	0.1534	0.8466	0
16.51	0.1552	0.8448	0
16.52	0.1570	0.8430	0
16.53	0.1588	0.8412	0
16.54	0.1606	0.8394	0
16.55	0.1623	0.8377	0
16.56	0.1640	0.8360	0
16.57	0.1656	0.8344	0
16.58	0.1673	0.8327	0
16.59	0.1688	0.8312	0
16.60	0.1701	0.8299	0
16.61	0.1714	0.8286	0
16.62	0.1726	0.8274	0
16.63	0.1739	0.8261	0
16.64	0.1746	0.8254	0
16.65	0.1751	0.8249	0
16.66	0.1757	0.8243	0
16.67	0.1763	0.8237	0
16.68	0.1765	0.8235	0
16.69	0.1762	0.8238	0
16.70	0.1760	0.8240	0
16.71	0.1757	0.8243	0
16.72	0.1755	0.8245	0
16.73	0.1744	0.8256	0
16.74	0.1734	0.8266	0
16.75	0.1723	0.8277	0
16.76	0.1712	0.8288	0
16.77	0.1699	0.8301	0
16.78	0.1682	0.8318	0
16.79	0.1665	0.8335	0
16.80	0.1649	0.8351	0
16.81	0.1632	0.8368	0
16.82	0.1612	0.8388	0
16.83	0.1592	0.8408	0
16.84	0.1571	0.8429	0
16.85	0.1551	0.8449	0
16.86	0.1531	0.8469	0
16.87	0.1509	0.8491	0
16.88	0.1488	0.8512	0
16.89	0.1466	0.8534	0
16.90	0.1445	0.8555	0
16.91	0.1422	0.8578	0
16.92	0.1399	0.8601	0
16.93	0.1376	0.8624	0
16.94	0.1353	0.8647	0
16.95	0.1330	0.8670	0
16.96	0.1304	0.8696	0
16.97	0.1279	0.8721	0
16.98	0.1254	0.8746	0
16.99	0.1228	0.8772	0
17.00	0.1201	0.8799	0
17.01	0.1173	0.8827	0
17.02	0.1146	0.8854	0
17.03	0.1118	0.8882	0
17.04	0.1090	0.8910	0
17.05	0.1060	0.8940	0
17.06	0.1030	0.8970	0
17.07	0.1001	0.8999	0
17.08	0.0971	0.9029	0
17.09	0.0941	0.9059	0
17.10	0.0912	0.9088	0
17.11	0.0882	0.9118	0
17.12	0.0853	0.9147	0
17.13	0.0824	0.9176	0
17.14	0.0796	0.9204	0
17.15	0.0769	0.9231	0
17.16	0.0742	0.9258	0
17.17	0.0716	0.9284	0
17.18	0.0690	0.9310	0
17.19	0.0666	0.9334	0
17.20	0.0642	0.9358	0
17.21	0.0619	0.9381	0
17.22	0.0597	0.9403	0
17.23	0.0575	0.9425	0
17.24	0.0555	0.9445	0
17.25	0.0536	0.9464	0
17.26	0.0516	0.9484	0
17.27	0.0499	0.9501	0
17.28	0.0482	0.9518	0
17.29	0.0466	0.9534	0
17.30	0.0450	0.9550	0
17.31	0.0435	0.9565	0
17.32	0.0420	0.9580	0
17.33	0.0406	0.9594	0
17.34	0.0393	0.9607	0
17.35	0.0381	0.9619	0
17.36	0.0368	0.9632	0
17.37	0.0356	0.9644	0
17.38	0.0346	0.9654	0
17.39	0.0336	0.9664	0
17.40	0.0326	0.9674	0
17.41	0.0316	0.9684	0
17.42	0.0306	0.9694	0
17.43	0.0298	0.9702	0
17.44	0.0290	0.9710	0
17.45	0.0283	0.9717	0
17.46	0.0275	0.9725	0
17.47	0.0267	0.9733	0
17.48	0.0260	0.9740	0
17.49	0.0253	0.9747	0
17.50	0.0247	0.9753	0
17.51	0.0240	0.9760	0
17.52	0.0234	0.9766	0
17.53	0.0229	0.9771	0
17.54	0.0224	0.9776	0
17.55	0.0219	0.9781	0
17.56	0.0214	0.9786	0
17.57	0.0209	0.9791	0
17.58	0.0204	0.9796	0
17.59	0.0199	0.9801	0
17.60	0.0195	0.9805	0
17.61	0.0191	0.9809	0
17.62	0.0187	0.9813	0
17.63	0.0184	0.9816	0
17.64	0.0180	0.9820	0
17.65	0.0177	0.9823	0
17.66	0.0174	0.9826	0
17.67	0.0170	0.9830	0
17.68	0.0167	0.9833	0
17.69	0.0164	0.9836	0
17.70	0.0161	0.9839	0
17.71	0.0158	0.9842	0
17.72	0.0155	0.9845	0
17.73	0.0153	0.9847	0
17.74	0.0151	0.9849	0
17.75	0.0149	0.9851	0
17.76	0.0147	0.9853	0
17.77	0.0144	0.9856	0
17.78	0.0142	0.9858	0
17.79	0.0140	0.9860	0
17.80	0.0138	0.9862	0
17.81	0.0136	0.9864	0
17.82	0.0134	0.9866	0
17.83	0.0133	0.9867	0
17.84	0.0131	0.9869	0
17.85	0.0129	0.9871	0
17.86	0.0128	0.9872	0
17.87	0.0127	0.9873	0
17.88	0.0125	0.9875	0
17.89	0.0124	0.9876	0
17.90	0.0122	0.9878	0
17.91	0.0121	0.9879	0
17.92	0.0119	0.9881	0
17.93	0.0119	0.9881	0
17.94	0.0117	0.9883	0
17.95	0.0116	0.9884	0
17.96	0.0115	0.9885	0
17.97	0.0114	0.9886	0
17.98	0.0113	0.9887	0
17.99	0.0112	0.9888	0
18.00	0.0111	0.9889	0
18.01	0.0110	0.9890	0
18.02	0.0109	0.9891	0
18.03	0.0109	0.9891	0
18.04	0.0108	0.9892	0
18.05	0.0107	0.9893	0
18.06	0.0107	0.9893	0
18.07	0.0106	0.9894	0
18.08	0.0105	0.9895	0
18.09	0.0105	0.9895	0
18.10	0.0104	0.9896	0
18.11	0.0103	0.9897	0
18.12	0.0103	0.9897	0
18.13	0.0102	0.9898	0
18.14	0.0102	0.9898	0
18.15	0.0102	0.9898	0
18.16	0.0101	0.9899	0
18.17	0.0101	0.9899	0
18.18	0.0100	0.9900	0
18.19	0.0100	0.9900	0
18.20	0.0100	0.9900	0
18.21	0.0100	0.9900	0
18.22	0.0099	0.9901	0
18.23	0.0099	0.9901	0
18.24	0.0099	0.9901	0
18.25	0.0099	0.9901	0
18.26	0.0099	0.9901	0
18.27	0.0099	0.9901	0
18.28	0.0099	0.9901	0
18.29	0.0099	0.9901	0
18.30	0.0099	0.9901	0
18.31	0.0098	0.9902	0
18.32	0.0098	0.9902	0
18.33	0.0099	0.9901	0
18.34	0.0099	0.9901	0
18.35	0.0099	0.9901	0
18.36	0.0099	0.9901	0
18.37	0.0099	0.9901	0
18.38	0.0099	0.9901	0
18.39	0.0099	0.9901	0
18.40	0.0099	0.9901	0
18.41	0.0099	0.9901	0
18.42	0.0099	0.9901	0
18.43	0.0099	0.9901	0
18.44	0.0100	0.9900	0
18.45	0.0100	0.9900	0
18.46	0.0100	0.9900	0
18.47	0.0101	0.9899	0
18.48	0.0101	0.9899	0
18.49	0.0101	0.9899	0
18.50	0.0102	0.9898	0
18.51	0.0102	0.9898	0
18.52	0.0102	0.9898	0
18.53	0.0103	0.9897	0
18.54	0.0103	0.9897	0
18.55	0.0104	0.9896	0
18.56	0.0105	0.9895	0
18.57	0.0105	0.9895	0
18.58	0.0106	0.9894	0
18.59	0.0107	0.9893	0
18.60	0.0107	0.9893	0
18.61	0.0108	0.9892	0
18.62	0.0109	0.9891	0
18.63	0.0109	0.9891	0
18.64	0.0110	0.9890	0
18.65	0.0111	0.9889	0
18.66	0.0112	0.9888	0
18.67	0.0112	0.9888	0
18.68	0.0113	0.9887	0
18.69	0.0114	0.9886	0
18.70	0.0114	0.9886	0
18.71	0.0115	0.9885	0
18.72	0.0116	0.9884	0
18.73	0.0117	0.9883	0
18.74	0.0118	0.9882	0
18.75	0.0120	0.9880	0
18.76	0.0121	0.9879	0
18.77	0.0122	0.9878	0
18.78	0.0124	0.9876	0
18.79	0.0125	0.9875	0
18.80	0.0126	0.9874	0
18.81	0.0127	0.9873	0
18.82	0.0128	0.9872	0
18.83	0.0130	0.9870	0
18.84	0.0131	0.9869	0
18.85	0.0132	0.9868	0
18.86	0.0134	0.9866	0
18.87	0.0136	0.9864	0
18.88	0.0138	0.9862	0
18.89	0.0139	0.9861	0
18.90	0.0141	0.9859	0
18.91	0.0142	0.9858	0
18.92	0.0144	0.9856	0
18.93	0.0146	0.9854	0
18.94	0.0148	0.9852	0
18.95	0.0150	0.9850	0
18.96	0.0152	0.9848	0
18.97	0.0154	0.9846	0
18.98	0.0156	0.9844	0
18.99	0.0158	0.9842	0
19.00	0.0160	0.9840	0
