# author: Kieran Leschinski
# source: https://stsynphot.readthedocs.io/en/latest/stsynphot/data_hst.html
# description: WFC3 IR Filter Curve
# date_created: 2019-11-19
# date_modified: 2019-11-19
# status: measured
# orig_filename: wfc3_ir_f110w_mjd_004_syn.fits
# wavelength_unit: Angstrom
 wavelength    transmission 
  6999.9307             0.0 
  7000.9307             0.0 
  7001.9307   3.4283386e-07 
   7021.936   1.2971383e-06 
  7041.9414    1.954389e-06 
   7061.947   4.0999205e-07 
   7081.952   2.2690371e-07 
  7101.9575   3.9233882e-07 
   7121.963    5.194916e-07 
  7141.9683    7.302081e-07 
  7161.9736   1.4680955e-07 
   7181.979    2.534329e-07 
  7201.9844    8.904912e-07 
  7221.9897   3.8222123e-07 
   7241.995    6.394109e-08 
  7262.0005    5.376644e-07 
   7282.006   2.3741426e-07 
   7302.011    6.053601e-07 
  7322.0166   1.0446419e-06 
   7342.022   1.0504561e-06 
  7362.0273   5.6983725e-07 
  7382.0327   4.4069594e-08 
   7402.038    6.199586e-07 
  7422.0435   8.8926846e-08 
  7442.0493   6.2423896e-07 
  7462.0547   3.5901306e-07 
    7482.06   4.7333856e-07 
  7502.0654    8.582704e-07 
   7522.071   4.5319208e-08 
   7542.076   1.8223862e-07 
  7562.0815    2.528116e-07 
   7582.087    7.355796e-07 
  7602.0923    6.208452e-07 
  7622.0977     3.93376e-07 
   7642.103    8.368255e-07 
  7662.1084   2.7938364e-07 
   7682.114   1.6330988e-07 
   7702.119    2.111364e-07 
  7722.1245    7.778412e-07 
    7742.13   8.5216294e-07 
  7762.1353   4.5072974e-07 
  7782.1406   7.3732883e-07 
   7802.146   4.0667302e-07 
  7822.1514   1.4591697e-06 
   7842.157    2.639893e-07 
  7862.1626   2.8970868e-07 
   7882.168   1.0153511e-06 
  7902.1733   1.9846173e-06 
  7922.1787    6.311932e-07 
   7942.184    9.992049e-07 
  7962.1895   4.4056227e-07 
   7982.195   7.5888653e-07 
     8002.2   3.4376933e-07 
  8022.2056    7.155578e-07 
   8042.211   1.1119995e-06 
  8062.2163   3.2182174e-07 
  8082.2217    4.965826e-08 
  8102.2275   4.2394726e-07 
   8122.233    1.026531e-06 
  8142.2383   1.8791925e-06 
  8162.2437    4.268454e-07 
   8182.249    6.812845e-07 
   8202.254   1.1405024e-06 
    8222.26   2.8009672e-06 
   8242.265    9.966897e-07 
  8262.2705    2.824653e-07 
   8282.276   2.2241086e-06 
   8302.281    1.198625e-06 
   8322.287   2.4079209e-06 
   8342.292   3.3393096e-06 
   8362.298    9.003754e-07 
   8382.303   4.0049777e-06 
   8402.309    6.091698e-06 
   8422.313   2.0278899e-06 
   8442.319   5.3994722e-06 
   8462.324   6.7212836e-06 
    8482.33   3.5955858e-07 
   8502.335   1.1703415e-06 
   8652.376   0.00010465068 
   8662.379   0.00033840284 
   8672.382   0.00039588823 
   8682.384   0.00025047292 
   8692.387    0.0005266083 
    8702.39    0.0006219422 
   8712.393    0.0006082792 
   8722.395    0.0009616176 
   8732.397    0.0011949749 
     8742.4    0.0012425062 
   8752.403    0.0016024717 
   8762.405      0.00227167 
   8772.408     0.002938445 
   8782.411     0.003598049 
   8792.414    0.0047495216 
   8802.416    0.0061757704 
   8812.419     0.008108668 
   8822.422     0.010732744 
   8832.425     0.014458955 
   8842.428     0.019408856 
    8852.43     0.026095053 
   8862.433     0.035063673 
   8872.436     0.046865024 
   8882.438      0.06204602 
    8892.44     0.081562586 
   8902.443      0.10669116 
   8912.446      0.13721153 
   8922.449      0.17213498 
   8932.452      0.21248475 
   8942.454      0.25902972 
   8952.457      0.31021816 
    8962.46      0.36494198 
   8972.463      0.42261285 
   8982.465      0.48230627 
   8992.468      0.54174435 
   9002.471       0.5988178 
   9012.474       0.6521614 
   9022.477       0.6997995 
   9032.479      0.74234223 
   9042.481      0.77784115 
   9052.484      0.80540454 
   9062.487        0.825193 
   9072.489       0.8387902 
   9082.492      0.84601456 
   9092.495      0.84816676 
   9102.498       0.8467486 
     9112.5      0.84345853 
   9122.503      0.84004974 
   9132.506       0.8373142 
   9142.509      0.83601767 
   9152.511       0.8373052 
   9162.514       0.8418429 
   9172.517      0.84934855 
    9182.52       0.8590254 
   9192.522       0.8708434 
   9202.524        0.883919 
   9212.527       0.8970644 
    9222.53      0.90933913 
   9232.533       0.9199824 
   9242.535       0.9283487 
   9252.538      0.93386877 
   9262.541       0.9361356 
   9272.544       0.9352391 
   9282.547       0.9317176 
   9292.549      0.92623043 
   9302.552      0.91941494 
   9312.555      0.91240084 
   9322.558      0.90612584 
    9332.56      0.90110946 
  9342.5625       0.8986002 
   9352.565       0.8989164 
   9362.568      0.90122217 
    9372.57        0.905707 
   9382.573       0.9126651 
   9392.576      0.92094874 
   9402.579      0.92923826 
   9412.582       0.9372835 
   9422.584      0.94477725 
   9432.587        0.950766 
    9442.59       0.9545118 
   9452.593      0.95599985 
   9462.595       0.9551591 
   9472.598      0.95230585 
   9482.601      0.94799846 
   9492.604       0.9428046 
   9502.606       0.9376246 
   9512.608       0.9329692 
   9522.611       0.9288892 
   9532.614       0.9260948 
   9542.617       0.9256091 
   9552.619      0.92711604 
   9562.622       0.9297519 
   9572.625      0.93365836 
   9582.628       0.9388044 
   9592.631      0.94484204 
   9602.633       0.9506912 
   9612.636      0.95539445 
   9622.639      0.95905554 
   9632.642       0.9614431 
   9642.644       0.9620295 
   9652.646      0.96097636 
   9662.649      0.95803237 
   9672.652       0.9538427 
   9682.655       0.9492182 
   9692.657      0.94427556 
    9702.66       0.9394786 
   9712.663       0.9353228 
   9722.666       0.9321085 
   9732.668       0.9307053 
   9742.671       0.9310015 
   9752.674       0.9325842 
   9762.677      0.93548137 
    9772.68       0.9390318 
   9782.682       0.9431975 
   9792.685       0.9477153 
  9802.6875      0.95184803 
    9812.69       0.9550295 
   9822.692       0.9571258 
   9832.695      0.95774716 
   9842.698       0.9567937 
   9852.701       0.9544391 
   9862.703      0.95075303 
   9872.706       0.9460747 
   9882.709      0.94091666 
   9892.712      0.93553126 
   9902.715       0.9306425 
   9912.717      0.92622644 
    9922.72      0.92345995 
   9932.723       0.9221116 
   9942.726       0.9221913 
   9952.728      0.92374015 
    9962.73       0.9268168 
   9972.733        0.931175 
   9982.736      0.93627924 
   9992.739       0.9418322 
  10002.741       0.9471867 
  10012.744       0.9519508 
  10022.747      0.95569766 
   10032.75      0.95835644 
  10042.752       0.9591902 
  10052.755      0.95794857 
  10062.758      0.95507735 
   10072.76      0.95053864 
  10082.763       0.9447094 
  10092.766       0.9378679 
  10102.769      0.93026555 
  10112.771       0.9232754 
  10122.774       0.9169067 
  10132.777      0.91147834 
  10142.779       0.9074832 
  10152.782       0.9050578 
  10162.785      0.90453714 
  10172.788       0.9060302 
   10182.79       0.9092464 
  10192.793       0.9137223 
  10202.796       0.9201519 
  10212.798       0.9273713 
  10222.801       0.9353258 
  10232.804       0.9434049 
  10242.807       0.9508637 
  10252.809       0.9578279 
  10262.812      0.96364117 
  10272.815       0.9680073 
  10282.817      0.97067606 
   10292.82        0.971826 
  10302.823       0.9712625 
  10312.826      0.96925795 
  10322.828      0.96642166 
  10332.831       0.9623307 
  10342.834       0.9579535 
  10352.836      0.95384467 
  10362.839       0.9499921 
  10372.842      0.94654644 
  10382.844        0.944109 
  10392.847      0.94281656 
   10402.85       0.9422331 
  10412.853       0.9436782 
  10422.855      0.94586825 
  10432.858       0.9488791 
  10442.861       0.9525682 
  10452.863      0.95665103 
  10462.866       0.9610761 
  10472.869       0.9654912 
  10482.872       0.9694265 
  10492.874       0.9726338 
  10502.877        0.975154 
   10512.88       0.9764575 
  10522.882      0.97692025 
  10532.885       0.9766898 
  10542.888       0.9752088 
  10552.891        0.972926 
  10562.893       0.9702552 
  10572.896      0.96717656 
  10582.899       0.9642575 
  10592.901       0.9611449 
  10602.904       0.9590586 
  10612.907       0.9572205 
   10622.91      0.95610857 
  10632.912      0.95592904 
  10642.915       0.9562871 
  10652.918       0.9574439 
   10662.92       0.9592071 
  10672.923      0.96148103 
  10682.926      0.96471727 
  10692.929       0.9679026 
  10702.931      0.97102916 
  10712.934       0.9741138 
  10722.937      0.97682345 
  10732.939       0.9790714 
  10742.942       0.9808964 
  10752.945      0.98226976 
  10762.948          0.9829 
   10772.95      0.98291796 
  10782.953      0.98222184 
  10792.956      0.98107696 
  10802.958       0.9795551 
  10812.961      0.97769505 
  10822.964       0.9760117 
  10832.967       0.9743811 
  10842.969        0.972924 
  10852.972       0.9717831 
  10862.975       0.9711588 
  10872.977       0.9707928 
   10882.98      0.97092944 
  10892.983       0.9716595 
  10902.986       0.9726438 
  10912.988       0.9738256 
  10922.991       0.9752657 
  10932.994      0.97678256 
  10942.996       0.9782326 
  10952.999      0.97942746 
  10963.002        0.980326 
  10973.005       0.9807199 
  10983.007      0.98082364 
   10993.01      0.98084354 
  11003.013       0.9801385 
  11013.015       0.9790664 
  11023.018      0.97759336 
  11033.021         0.97587 
  11043.024      0.97414273 
  11053.026       0.9723336 
  11063.029      0.97046167 
  11073.032       0.9688281 
  11083.034       0.9675296 
  11093.037       0.9665064 
   11103.04       0.9658551 
  11113.042        0.965921 
  11123.045      0.96648943 
  11133.048       0.9672454 
  11143.051       0.9684172 
  11153.053      0.96977556 
  11163.056      0.97131735 
  11173.059       0.9730327 
  11183.061      0.97464436 
  11193.064       0.9760974 
  11203.067      0.97716254 
   11213.07       0.9778687 
  11223.072       0.9782975 
  11233.075       0.9781608 
  11243.078      0.97741383 
   11253.08       0.9761683 
  11263.083      0.97454464 
  11273.086       0.9725411 
  11283.089      0.97017246 
  11293.091       0.9675446 
  11303.094        0.964793 
  11313.097       0.9621153 
  11323.099      0.95963204 
  11333.102       0.9572056 
  11343.105       0.9553107 
  11353.108      0.95419973 
   11363.11       0.9535315 
  11373.113      0.95352054 
  11383.116      0.95399225 
  11393.118      0.95494473 
  11403.121      0.95638376 
  11413.124      0.95840436 
  11423.127       0.9608866 
  11433.129       0.9634975 
  11443.132      0.96623415 
  11453.135       0.9689767 
  11463.137       0.9714819 
   11473.14        0.974021 
  11483.143      0.97635573 
  11493.146       0.9780282 
  11503.148      0.97927487 
  11513.151       0.9800637 
  11523.154      0.98022527 
  11533.156      0.97980744 
  11543.159       0.9790325 
  11553.162       0.9779514 
  11563.165       0.9764754 
  11573.167      0.97465235 
   11583.17       0.9727026 
  11593.173       0.9706292 
  11603.175      0.96897274 
  11613.178      0.96755755 
  11623.181       0.9661853 
  11633.184       0.9650942 
  11643.186        0.964433 
  11653.189       0.9642126 
  11663.192      0.96440905 
  11673.194       0.9650164 
  11683.197         0.96592 
    11693.2       0.9672953 
  11703.203      0.96882707 
  11713.205       0.9704717 
  11723.208       0.9723496 
  11733.211      0.97432226 
  11743.213       0.9760785 
  11753.216       0.9776263 
  11763.219      0.97897464 
  11773.222       0.9801225 
  11783.224       0.9809254 
  11793.227       0.9811966 
   11803.23       0.9811059 
  11813.232      0.98073584 
  11823.235       0.9800597 
  11833.238      0.97912025 
  11843.241       0.9780182 
  11853.243        0.976624 
  11863.246        0.975149 
  11873.249       0.9737029 
  11883.251       0.9724663 
  11893.254       0.9713912 
  11903.257       0.9703809 
   11913.26       0.9699212 
  11923.262       0.9694325 
  11933.265       0.9692888 
  11943.268       0.9697137 
   11953.27      0.97037095 
  11963.273       0.9712037 
  11973.276       0.9724693 
  11983.279       0.9738435 
  11993.281       0.9751251 
  12003.284      0.97659504 
  12013.287      0.97790456 
  12023.289       0.9791851 
  12033.292       0.9803409 
  12043.295       0.9812136 
  12053.298        0.981806 
    12063.3       0.9819755 
  12073.303      0.98175013 
  12083.306       0.9812146 
  12093.309       0.9803659 
  12103.311         0.97923 
  12113.314       0.9777629 
  12123.317      0.97616726 
  12133.319       0.9744529 
  12143.322       0.9724743 
  12153.325         0.97072 
  12163.328       0.9687882 
   12173.33       0.9672025 
  12183.333      0.96583223 
  12193.336      0.96474516 
  12203.338       0.9639902 
  12213.341       0.9635474 
  12223.344      0.96345663 
  12233.347      0.96375585 
  12243.349      0.96422654 
  12253.352      0.96511716 
  12263.355        0.966273 
  12273.357       0.9677301 
   12283.36       0.9693148 
  12293.363        0.971072 
  12303.366       0.9726597 
  12313.368       0.9742983 
  12323.371      0.97584116 
  12333.374       0.9773191 
  12343.376      0.97833437 
  12353.379       0.9791841 
  12363.382       0.9797715 
  12373.385      0.97989714 
  12383.387       0.9798014 
   12393.39        0.979234 
  12403.393      0.97847897 
  12413.395        0.977376 
  12423.398      0.97605354 
  12433.401       0.9746823 
  12443.404      0.97305965 
  12453.406       0.9715527 
  12463.409       0.9701386 
  12473.412       0.9687713 
  12483.414       0.9675316 
  12493.417      0.96648246 
   12503.42      0.96582425 
  12513.423       0.9655639 
  12523.425       0.9654912 
  12533.428      0.96581227 
  12543.431      0.96630496 
  12553.433       0.9673052 
  12563.436       0.9685648 
  12573.439       0.9700358 
  12583.442      0.97163653 
  12593.444       0.9733569 
  12603.447       0.9749465 
   12613.45       0.9764744 
  12623.452      0.97841614 
  12633.455       0.9800597 
  12643.458      0.98137814 
  12653.461       0.9824632 
  12663.463       0.9831713 
  12673.466      0.98370385 
  12683.469      0.98384345 
  12693.471      0.98354226 
  12703.474      0.98314637 
  12713.477       0.9824393 
   12723.48      0.98151374 
  12733.482      0.98020333 
  12743.485       0.9788899 
  12753.488      0.97740793 
   12763.49       0.9759568 
  12773.493       0.9745337 
  12783.496       0.9731225 
  12793.499      0.97187185 
  12803.501      0.97079676 
  12813.504      0.96995205 
  12823.507      0.96936166 
  12833.509      0.96907747 
  12843.512       0.9690595 
  12853.515      0.96920305 
  12863.518      0.96977055 
   12873.52      0.97040486 
  12883.523       0.9712635 
  12893.526       0.9723207 
  12903.528      0.97360617 
  12913.531       0.9748139 
  12923.534       0.9760575 
  12933.537       0.9771785 
  12943.539       0.9780132 
  12953.542       0.9787582 
  12963.545       0.9793995 
  12973.548      0.97963583 
   12983.55       0.9793217 
  12993.553       0.9788081 
  13003.556      0.97802424 
  13013.558       0.9768105 
  13023.561       0.9751719 
  13033.564      0.97329104 
  13043.567      0.97114986 
  13053.569       0.9687972 
  13063.572       0.9662521 
  13073.575       0.9634965 
  13083.577      0.96073306 
   13093.58       0.9579944 
  13103.583       0.9554663 
  13113.586       0.9530289 
  13123.588       0.9509515 
  13133.591       0.9494745 
  13143.594      0.94809824 
  13153.596       0.9471398 
  13163.599      0.94658035 
  13173.602       0.9465365 
  13183.605       0.9470172 
  13193.607      0.94789475 
   13203.61       0.9492691 
  13213.613       0.9513883 
  13223.615      0.95362025 
  13233.618      0.95626813 
  13243.621       0.9591753 
  13253.624       0.9622689 
  13263.626       0.9654752 
  13273.629      0.96892387 
  13283.632      0.97201747 
  13293.634      0.97500837 
  13303.637       0.9776662 
   13313.64       0.9798532 
  13323.643       0.9815178 
  13333.645       0.9826716 
  13343.648       0.9830915 
  13353.651      0.98270357 
  13363.653       0.9816464 
  13373.656       0.9799001 
  13383.659       0.9774587 
  13393.662       0.9743352 
  13403.664      0.97068506 
  13413.667       0.9666241 
   13423.67       0.9622968 
  13433.672      0.95775306 
  13443.675       0.9530488 
  13453.678       0.9484892 
  13463.681        0.944133 
  13473.683      0.93997127 
  13483.686       0.9361446 
  13493.689       0.9329213 
  13503.692      0.93041813 
  13513.694       0.9284883 
  13523.697       0.9271888 
    13533.7       0.9264828 
  13543.702       0.9263531 
  13553.705      0.92707115 
  13563.708       0.9280226 
  13573.711       0.9291535 
  13583.713      0.93061155 
  13593.716      0.93213844 
  13603.719       0.9335855 
  13613.721       0.9347643 
  13623.724      0.93560404 
  13633.727       0.9360548 
   13643.73       0.9357846 
  13653.732      0.93478525 
  13663.735       0.9333112 
  13673.738      0.93109524 
   13683.74       0.9280585 
  13693.743       0.9247474 
  13703.746       0.9213846 
  13713.749      0.91802067 
  13723.751      0.91538584 
  13733.754       0.9136206 
  13743.757      0.91233605 
  13753.759      0.91162896 
  13763.762      0.91218644 
  13773.765       0.9140175 
  13783.768       0.9168927 
   13793.77       0.9204301 
  13803.773       0.9247106 
  13813.776       0.9288673 
  13823.778       0.9322242 
  13833.781      0.93436044 
  13843.784        0.934887 
  13853.787      0.93326443 
  13863.789       0.9292343 
  13873.792       0.9229783 
  13883.795      0.91510653 
  13893.798      0.90635824 
    13903.8       0.8978213 
  13913.803       0.8897552 
  13923.806      0.88350713 
  13933.808       0.8789225 
  13943.811      0.87408465 
  13953.814        0.865817 
  13963.817      0.84939647 
  13973.819      0.81825376 
  13983.822         0.76643 
  13993.825      0.69286525 
  14003.827      0.60062593 
   14013.83       0.4948513 
  14023.833        0.388212 
  14033.836        0.289219 
  14043.838      0.20719706 
  14053.841      0.14351945 
  14063.844      0.09712465 
  14073.846     0.063341714 
  14083.849      0.04106353 
  14093.852     0.027561285 
  14103.855     0.018529933 
  14113.857     0.012410302 
   14123.86     0.008969696 
  14133.863    0.0065714093 
  14143.865     0.005097151 
  14153.868    0.0034881667 
  14163.871    0.0024307093 
  14173.874    0.0016792039 
  14183.876    0.0009946881 
  14193.879    0.0010034833 
  14203.882    0.0008153955 
  14213.884   0.00062484236 
  14223.887   0.00052510237 
   14233.89    0.0003743545 
  14243.893   0.00028491963 
  14253.895   0.00023771843 
  14263.898   0.00023263818 
  14273.901   0.00017129924 
  14283.904    0.0001227457 
  14293.906   0.00011893601 
  14303.909  0.000107453096 
  14503.963   3.6684185e-06 
  14523.969   4.2169736e-06 
  14543.974   3.0966664e-06 
   14563.98   1.2508636e-07 
  14583.985   1.7750644e-06 
  14603.991    2.316748e-06 
  14623.996   2.2526315e-06 
  14644.001   3.4845664e-06 
  14664.007   1.9163419e-07 
  14684.012   1.9319098e-06 
  14704.018   1.4000296e-06 
  14724.023    4.779381e-07 
  14744.029   1.2751079e-06 
  14764.034   1.6561862e-06 
  14784.039   3.5066566e-07 
  14804.045   5.7245023e-07 
   14824.05   5.3582534e-07 
  14844.056   3.1896846e-07 
  14864.061   1.4375281e-06 
  14884.067   1.8005354e-06 
  14904.072   1.9796305e-06 
  14924.078   4.4950806e-07 
  14944.083   3.5421104e-07 
  14964.088   3.4047125e-06 
  14984.094    9.955388e-07 
  15004.099    9.957881e-07 
  15024.105   4.1172135e-07 
   15044.11   2.5739615e-07 
  15064.116   6.4461386e-07 
  15084.121   6.5104643e-07 
  15104.126   2.2575281e-07 
  15124.132   1.4146202e-06 
  15144.137   8.6743364e-07 
  15164.143   5.1002223e-07 
  15184.148     2.19778e-06 
  15204.154   1.8800403e-06 
  15224.159    3.942028e-07 
  15244.165   1.0366335e-06 
   15264.17   9.0650286e-07 
  15284.175   4.1575643e-07 
  15304.181   2.9840414e-06 
  15324.186    3.214348e-06 
  15344.192   2.5935685e-07 
  15364.197   2.7654432e-06 
  15384.203   8.2250625e-07 
  15404.208   3.1782954e-06 
  15424.213   3.4788518e-06 
  15444.219    3.582491e-07 
  15464.224   1.5615425e-06 
   15484.23   2.6106125e-07 
  15504.235   2.1122817e-06 
  15524.241   2.5155398e-06 
  15544.246    2.617025e-07 
  15564.252     2.35286e-06 
  15584.257   1.1129769e-06 
  15604.262    6.581821e-08 
  15624.268    9.597038e-07 
  15644.273    7.529266e-07 
  15664.279   1.9575303e-07 
  15684.284   3.2333764e-07 
   15704.29    3.374295e-06 
  15724.295   1.5473009e-06 
  15744.301   4.9758586e-07 
  15764.306   6.5649266e-07 
  15784.311   9.4586227e-07 
  15804.317   2.3395462e-06 
  15824.322   4.6413643e-07 
  15844.328   8.6670957e-07 
  15864.333   1.1538862e-06 
  15884.339   1.2789576e-06 
  15904.344   1.4973862e-06 
  15924.349   1.2234777e-06 
  15944.355   1.1959422e-06 
   15964.36  1.00482964e-07 
  15984.366   5.9551576e-07 
  16004.371   1.9801192e-07 
  16024.377   1.0224519e-06 
  16044.382   1.8027893e-06 
  16064.388    6.498477e-07 
  16084.393    7.931089e-07 
  16104.398   1.5906337e-06 
  16124.404    6.007087e-07 
  16144.409   1.4804519e-06 
  16164.415    5.598384e-07 
   16184.42    9.520595e-07 
  16204.426   4.0315655e-07 
  16224.431   1.0131072e-06 
  16244.436   1.1671402e-06 
  16264.442   1.8340048e-06 
  16284.447    2.365446e-06 
  16304.453   1.9671145e-06 
  16324.458   2.5944462e-06 
  16344.464   3.2976325e-07 
  16364.469   1.9760203e-07 
  16384.475    2.117946e-06 
   16404.48    2.628095e-06 
  16424.484    8.910118e-07 
   16444.49    4.932786e-07 
  16464.496   1.1814316e-06 
  16484.502   4.4041568e-07 
  16504.508   9.2797177e-07 
  16524.514   3.3086627e-07 
  16544.518    4.696555e-07 
  16564.523    2.034851e-07 
   16584.53   2.5838049e-06 
  16604.533   1.3267481e-07 
   16624.54    2.987073e-07 
  16644.545    5.100472e-07 
   16664.55   1.2514919e-06 
  16684.557   2.6350363e-06 
  16704.562   1.6110286e-06 
  16724.566   1.5771701e-06 
  16744.572    1.746402e-06 
  16764.578   1.9154743e-06 
  16784.582   2.5873253e-06 
   16804.59    2.353668e-07 
  16824.594   3.3691688e-08 
    16844.6   1.8332768e-06 
  16864.605   1.6994591e-06 
  16884.611   4.7288177e-07 
  16904.615   4.7314805e-07 
  16924.621    1.983171e-06 
  16944.627   5.3845724e-07 
  16964.633   1.2203162e-06 
  16984.639   6.1361675e-07 
  17004.643    7.149704e-07 
  17024.648   4.6833306e-06 
  17044.654   1.3230482e-06 
   17064.66   4.3291598e-06 
  17084.664   2.2232211e-06 
   17104.67   3.4057398e-06 
  17124.676    6.139698e-07 
  17144.682    5.446475e-07 
  17164.688   2.1908788e-06 
  17184.691    6.802115e-08 
  17204.697   7.5079737e-07 
  17224.703    4.390035e-07 
  17244.709   1.0834269e-06 
  17264.715   2.7268774e-07 
  17284.719   6.8705396e-07 
  17304.725   6.5152017e-07 
   17324.73   1.5021133e-06 
  17344.736   5.4555306e-07 
   17364.74    2.574151e-06 
  17384.746    5.098836e-07 
  17404.752    1.809561e-06 
  17424.758    5.562331e-06 
  17444.764    9.895919e-07 
  17464.768   3.4167697e-06 
  17484.773    2.477373e-06 
   17504.78   1.1328132e-06 
  17524.785    2.290489e-06 
   17544.79   1.7099308e-06 
  17564.797    6.157091e-07 
    17584.8   6.1611297e-07 
  17604.807   1.3023641e-06 
  17624.812   1.3344971e-06 
  17644.816   1.9038458e-06 
  17664.822   3.4171688e-07 
  17684.828   1.5101017e-06 
  17704.834   1.9578297e-06 
   17724.84   1.8914693e-06 
  17744.846     3.09893e-07 
   17764.85   3.1911607e-06 
  17784.855   2.5197483e-06 
  17804.861   2.3756686e-06 
  17824.865   4.1996905e-06 
  17844.871   4.7510975e-06 
  17864.877    7.017631e-06 
  17884.883   4.4652215e-06 
  17904.889   5.9826134e-06 
  17924.895    8.544149e-06 
  17944.898  1.08820395e-05 
  17964.904   1.6172815e-05 
   17984.91   1.6778176e-05 
  18004.914   2.0334748e-05 
  18024.922    3.416411e-05 
  18044.926    4.407268e-05 
  18064.932    5.685328e-05 
  18084.938    8.723403e-05 
  18104.943    0.0001238517 
  18124.947   0.00020438667 
  18144.953   0.00035060183 
  18164.959    0.0007277178 
  18184.965    0.0020093601 
   18204.97    0.0053103934 
  18224.975     0.012016268 
   18244.98     0.022249065 
  18264.986     0.035113838 
  18284.992     0.049081624 
  18304.996     0.064006016 
  18325.002      0.07849459 
  18345.008      0.09161697 
  18365.014     0.101945005 
   18385.02      0.10599205 
  18405.023      0.10651065 
   18425.03      0.10257629 
  18445.035     0.093987346 
  18465.041      0.08243054 
  18485.047      0.07060575 
   18505.05       0.0625344 
  18525.057     0.059667863 
  18545.062      0.06402427 
  18565.068      0.07894158 
  18585.072      0.10362147 
  18605.078      0.13595693 
  18625.084      0.17244415 
   18645.09      0.21095788 
  18665.096      0.24707611 
    18685.1      0.27716663 
  18705.105       0.2998173 
  18725.111      0.31239426 
  18745.117      0.31425124 
  18765.121      0.30694202 
  18785.129      0.28500143 
  18805.133      0.25814214 
  18825.139       0.2255394 
  18845.145      0.19218071 
  18865.148      0.16169325 
  18885.154      0.13863468 
   18905.16      0.12060948 
  18925.166      0.11319256 
  18945.172      0.11093167 
  18965.178      0.11416293 
  18985.182     0.122625016 
  19005.188      0.14007278 
  19006.188             0.0 
  19007.188             0.0 
