# author: Kieran Leschinski
# source: https://stsynphot.readthedocs.io/en/latest/stsynphot/data_hst.html
# description: WFC3 IR Filter Curve
# date_created: 2019-11-19
# date_modified: 2019-11-19
# status: measured
# orig_filename: wfc3_ir_f128n_mjd_004_syn.fits
# wavelength_unit: Angstrom
 wavelength   transmission 
  6999.9307            0.0 
  7000.9307            0.0 
  7001.9307   9.578532e-05 
   7051.944   9.579491e-05 
  7101.9575   9.575654e-05 
  7151.9707   9.576614e-05 
  7201.9844    9.58045e-05 
   7251.998  0.00019162818 
   7302.011  0.00019153228 
   7352.025  0.00019153228 
   7402.038   0.0002874423 
   7452.052  0.00047907047 
  7502.0654   0.0009577573 
  7552.0786   0.0015326417 
  7602.0923   0.0042142854 
   7652.106   0.0045960075 
   7702.119    0.018970998 
   7752.133   0.0047916635 
   7802.146   0.0002874423 
  7852.1597  9.5823685e-05 
  7902.1733   9.579491e-05 
  7952.1865  0.00019162818 
     8002.2      9.591e-05 
   8052.214  9.5823685e-05 
  8102.2275   9.578532e-05 
  8152.2407    9.58045e-05 
   8202.254   9.581409e-05 
   8252.268  0.00019153228 
   8302.281  0.00019162818 
   8352.295  9.5862044e-05 
   8402.309  9.5852454e-05 
   8452.322  0.00019191591 
   8502.335      9.591e-05 
   8552.349  0.00019191591 
   8602.362   0.0006707946 
    8702.39  9.5833275e-05 
   8752.403   0.0002875382 
   8802.416  0.00019172409 
    8852.43  0.00019172409 
   8902.443  0.00038344818 
   9052.484   0.0005750764 
   9102.498  0.00038344818 
   9152.511  0.00019172409 
   9202.524  0.00038335225 
   9252.538  0.00019172409 
   9302.552  0.00028763412 
   9352.565   0.0006707946 
   9402.579  9.5862044e-05 
   9452.593  9.5852454e-05 
   9502.606  0.00019172409 
   9552.619  9.5862044e-05 
   9602.633  0.00019172409 
   9652.646  0.00019162818 
   9752.674  0.00019172409 
   9852.701  0.00047935822 
   9952.728  0.00019172409 
  10102.769   0.0005748846 
  10152.782   0.0005748846 
  10202.796   0.0004792623 
  10252.809   0.0002875382 
  10302.823  9.5823685e-05 
  10352.836  0.00019162818 
  10452.863  0.00038335225 
  10552.891  0.00019172409 
  10702.931   0.0005750764 
  10802.958   9.587164e-05 
  10852.972  0.00019172409 
  10902.986  9.5852454e-05 
  10952.999   0.0002874423 
  11003.013  9.5833275e-05 
   11103.04   0.0002875382 
  11153.053  9.5823685e-05 
  11203.067   0.0002874423 
   11253.08  0.00047907047 
  11353.108   0.0002875382 
  11453.135  9.5862044e-05 
  11503.148  0.00019162818 
  11553.162  0.00019162818 
  11653.189  0.00038325635 
  11703.203   0.0002874423 
   11803.23  0.00047907047 
  11853.243   0.0002875382 
  11903.257   9.588122e-05 
   11953.27  0.00019172409 
  12003.284   0.0002875382 
  12053.298   0.0002875382 
  12103.311   9.587164e-05 
  12153.325   9.590041e-05 
  12203.338   0.0005751723 
  12353.379  0.00038344818 
  12453.406  0.00019172409 
   12503.42  0.00057498045 
  12553.433  0.00038335225 
  12603.447   0.0005750764 
  12653.461   0.0002875382 
  12701.474   0.0009546882 
  12703.474   0.0007668004 
  12705.475  0.00085887406 
  12707.475   0.0012381981 
  12709.476   0.0009470153 
  12711.476   0.0012305253 
  12713.477   0.0016103289 
  12715.477   0.0021819526 
  12717.478   0.0021781162 
  12719.479   0.0023660997 
  12721.479   0.0031285842 
   12723.48    0.004275668 
   12725.48    0.005517702 
  12727.481    0.006760696 
  12729.481    0.009057741 
  12731.482    0.012123024 
  12733.482    0.016525293 
  12735.483    0.022663534 
  12737.483    0.030902201 
  12739.484     0.04220999 
  12741.484       0.057546 
  12743.485     0.07921207 
  12745.486     0.10924149 
  12747.486     0.14626275 
  12749.487     0.19488911 
  12751.487      0.2503251 
  12753.488     0.31650302 
  12755.488     0.38805187 
  12757.489     0.46477988 
  12759.489     0.54054874 
   12761.49       0.613824 
   12763.49     0.67616546 
  12765.491     0.73208106 
  12767.492     0.77725464 
  12769.492      0.8145637 
  12771.493     0.84266526 
  12773.493      0.8632859 
  12775.494     0.87632966 
  12777.494     0.88563293 
  12779.495      0.8916753 
  12781.495      0.8955117 
  12783.496      0.8984849 
  12785.496       0.900499 
  12787.497     0.90193766 
  12789.498     0.90203357 
  12791.498      0.9014581 
  12793.499       0.900499 
  12795.499      0.8982931 
    12797.5      0.8962789 
    12799.5      0.8934975 
  12801.501       0.890908 
  12803.501      0.8878389 
  12805.502      0.8851534 
  12807.502      0.8833311 
  12809.503      0.8814129 
  12811.504     0.87997425 
  12813.504     0.87805605 
  12815.505     0.87719285 
  12817.505     0.87594604 
  12819.506     0.87469923 
  12821.506      0.8734524 
  12823.507     0.87239736 
  12825.507      0.8719178 
  12827.508      0.8707669 
  12829.508      0.8697119 
  12831.509      0.8687528 
  12833.509      0.8678896 
   12835.51      0.8670264 
  12837.511      0.8658755 
  12839.511     0.86414915 
  12841.512      0.8629982 
  12843.512       0.862135 
  12845.513      0.8612718 
  12847.513      0.8603127 
  12849.514      0.8594495 
  12851.514      0.8575313 
  12853.515      0.8566681 
  12855.515      0.8558049 
  12857.516      0.8553254 
  12859.517      0.8547499 
  12861.517      0.8539826 
  12863.518     0.85254395 
  12865.518      0.8516808 
  12867.519     0.85043395 
  12869.519      0.8496667 
   12871.52     0.84918714 
   12873.52      0.8480362 
  12875.521     0.84640574 
  12877.521     0.84535074 
  12879.522      0.8448712 
  12881.523     0.84429574 
  12883.523     0.84467936 
  12885.524     0.84525484 
  12887.524     0.84621394 
  12889.525     0.84774846 
  12891.525      0.8500504 
  12893.526     0.85225624 
  12895.526      0.8531195 
  12897.527      0.8515849 
  12899.527      0.8467894 
  12901.528     0.83729434 
  12903.528      0.8186878 
  12905.529      0.7923125 
   12907.53      0.7519344 
   12909.53     0.70445895 
  12911.531     0.64240515 
  12913.531      0.5773782 
  12915.532     0.50352746 
  12917.532     0.43121138 
  12919.533      0.3577443 
  12921.533     0.29396415 
  12923.534      0.2330613 
  12925.534     0.18337992 
  12927.535     0.14031634 
  12929.536    0.107035555 
  12931.536     0.07919289 
  12933.537     0.05963684 
  12935.537     0.04439674 
  12937.538     0.03365482 
  12939.538     0.02511883 
  12941.539    0.018980589 
  12943.539    0.014664639 
   12945.54     0.01160511 
   12947.54    0.009011704 
  12949.541   0.0069985525 
  12951.542    0.005656772 
  12953.542    0.004505852 
  12955.543    0.003558261 
  12957.543   0.0028034493 
  12959.544   0.0022394985 
  12961.544   0.0019632778 
  12963.545   0.0017829669 
  12965.545   0.0016985661 
  12967.546   0.0015182552 
  12969.546  0.00085887406 
  12971.547   0.0012535438 
  12973.548   0.0014568729 
  12975.548   0.0010847421 
  12977.549   0.0007130909 
  12979.549   0.0009162282 
   12981.55  0.00054438517 
   12983.55  0.00055579847 
  12985.551   0.0009506599 
  12987.551  0.00057881686 
  12989.552  0.00059032603 
  12991.552   0.0008893735 
  13003.556   0.0007667045 
  13053.569  0.00019172409 
   13203.61   0.0004792623 
  13303.637  0.00019172409 
  13403.664   0.0002875382 
  13653.732   0.0002874423 
  13703.746   9.588122e-05 
  13803.773  0.00019172409 
    13903.8  9.5852454e-05 
  13953.814  0.00019172409 
  14003.827      9.591e-05 
  14053.841     0.00019182 
  14103.855  0.00019172409 
  14153.868   9.588122e-05 
  14203.882  9.5862044e-05 
  14253.895  0.00019172409 
  14303.909  0.00038344818 
  14553.977  9.5862044e-05 
  14603.991  9.5862044e-05 
  14704.018  0.00038335225 
  14754.031  0.00019172409 
  14804.045  0.00038344818 
  14854.058  0.00028763412 
  14954.086  0.00019172409 
  15004.099   9.587164e-05 
  15054.113  0.00019172409 
   15154.14  0.00019172409 
  15204.154  9.5862044e-05 
  15254.167   9.590041e-05 
  15304.181  0.00019172409 
  15354.194  0.00047935822 
  15454.222  0.00028763412 
  15554.249  0.00047945412 
  15604.262   9.589082e-05 
   15704.29  0.00028763412 
  15754.303   9.587164e-05 
  15804.317  0.00038354407 
   15854.33  0.00019172409 
  15954.358   9.587164e-05 
  16004.371  0.00038335225 
  16054.385  0.00019172409 
  16104.398  0.00067108223 
  16154.412  0.00028763412 
  16204.426  0.00019172409 
  16304.453  0.00047935822 
  16354.466   9.590041e-05 
   16404.48  0.00028763412 
  16454.494  0.00028763412 
  16604.533  0.00019172409 
  16654.549   0.0002875382 
  16704.562   0.0002875382 
   16954.63  0.00028763412 
   17104.67   0.0002875382 
  17154.684  0.00019172409 
  17204.697  0.00019172409 
  17304.725  9.5852454e-05 
  17354.738  9.5852454e-05 
  17404.752  9.5852454e-05 
  17454.766  0.00038344818 
   17504.78  0.00019172409 
  17554.793     0.00019182 
  17604.807  0.00028763412 
   17654.82   9.588122e-05 
  17704.834   9.590041e-05 
  17754.848  0.00028763412 
  17804.861  0.00019172409 
  17854.875  0.00028763412 
  17904.889   9.587164e-05 
  17954.902  0.00019172409 
  18004.914   9.588122e-05 
   18054.93  0.00047935822 
  18104.943   0.0010540509 
  18154.955   0.0031631119 
   18204.97    0.015815558 
  18254.982     0.28101632 
  18304.996     0.19968462 
  18355.012     0.05474543 
  18405.023     0.04056993 
  18455.037      0.0449722 
   18505.05    0.064135015 
  18555.064     0.10339098 
  18605.078      0.1381104 
  18655.092     0.13024579 
  18705.105     0.10665192 
   18755.12     0.09157487 
  18805.133     0.08438162 
  18855.146    0.076497816 
   18905.16     0.06699313 
  18955.174     0.05960807 
  19005.188      0.0562704 
  19055.201     0.06029862 
  19105.215    0.072287366 
  19155.229    0.101856425 
  19205.242     0.16026561 
  19255.256      0.2556961 
   19305.27      0.3366441 
  19355.283     0.31458482 
  19405.297     0.25847745 
   19455.31     0.22519667 
  19505.324     0.21809934 
  19555.338     0.22999218 
  19605.352     0.25387377 
  19655.363      0.2800572 
  19705.379     0.30106148 
  19755.393      0.3173662 
  19805.404     0.34268644 
   19855.42     0.38872322 
  19905.432      0.4681367 
  19955.445     0.57421315 
   20005.46     0.66216266 
   20006.46            0.0 
   20007.46            0.0 
