# author: Kieran Leschinski
# source: https://stsynphot.readthedocs.io/en/latest/stsynphot/data_hst.html
# description: WFC3 IR Filter Curve
# date_created: 2019-11-19
# date_modified: 2019-11-19
# status: measured
# orig_filename: wfc3_ir_f127m_mjd_004_syn.fits
# wavelength_unit: Angstrom
 wavelength   transmission 
  6999.9307            0.0 
  7000.9307            0.0 
  7001.9307  9.8621626e-05 
   7051.944  9.8631506e-05 
  7101.9575     9.8592e-05 
  7151.9707   9.860188e-05 
  7201.9844   9.864137e-05 
   7251.998  0.00019730249 
   7302.011  0.00019720376 
   7352.025  0.00019720376 
   7402.038  0.00029595377 
   7452.052  0.00069046003 
  7502.0654   0.0014792751 
  7552.0786      0.0028598 
  7602.0923   0.0056208503 
   7652.106      0.0075919 
   7702.119    0.022890251 
   7752.133   0.0043420377 
   7802.146  0.00019730249 
  7852.1597   9.866113e-05 
  7902.1733  9.8631506e-05 
  7952.1865   9.866113e-05 
     8002.2  9.8749995e-05 
   8202.254  9.8651246e-05 
   8252.268   9.860188e-05 
   8302.281  0.00019730249 
   8352.295   9.870062e-05 
   8402.309  9.8690754e-05 
   8452.322  9.8749995e-05 
   8502.335  9.8749995e-05 
   8552.349  9.8749995e-05 
   8602.362  0.00029595377 
   8802.416  9.8690754e-05 
    8852.43  9.8690754e-05 
   8902.443  0.00039480248 
   9002.471  0.00039480248 
   9052.484  0.00039470373 
   9152.511  9.8690754e-05 
   9202.524   9.868088e-05 
   9252.538  0.00029605252 
   9302.552    9.87105e-05 
   9352.565  0.00029595377 
   9402.579   9.870062e-05 
   9602.633  0.00039480248 
   9652.646  0.00029605252 
   9752.674   9.868088e-05 
  10102.769  0.00029595377 
  10152.782  0.00029595377 
  10252.809  0.00019730249 
  10302.823   9.866113e-05 
  10352.836  0.00019730249 
   10402.85  0.00029595377 
  10452.863  0.00029605252 
  10552.891  9.8690754e-05 
  10602.904     9.8671e-05 
  10702.931   9.868088e-05 
  10752.945    9.87105e-05 
  10852.972  0.00019740124 
  10902.986  0.00019740124 
  10952.999  0.00029595377 
  11003.013  0.00019730249 
  11153.053  0.00019730249 
   11253.08  0.00039460498 
  11403.121   9.868088e-05 
  11503.148  0.00019730249 
  11553.162  0.00039460498 
  11653.189  0.00019730249 
   11803.23  0.00029595377 
   11953.27  0.00049345376 
    12063.3  0.00037495376 
  12083.306   0.0003355525 
  12103.311  0.00019740124 
  12123.317  0.00021715126 
  12143.322  0.00043440127 
  12163.328   0.0006713025 
  12183.333   0.0013222625 
  12203.338   0.0020727625 
  12223.344   0.0029417626 
  12243.349    0.005193263 
  12263.355    0.008588288 
   12283.36    0.015296375 
  12303.366    0.028430127 
  12323.371    0.054529753 
  12343.376      0.1068475 
  12363.382     0.20628875 
  12383.387     0.37821248 
  12403.393     0.60642374 
  12423.398     0.80451626 
  12443.404     0.91699255 
  12463.409      0.9536287 
  12483.414      0.9583688 
   12503.42     0.95135754 
  12523.425        0.94089 
  12543.431       0.931015 
  12563.436        0.92035 
  12583.442     0.91195625 
  12603.447     0.90524125 
  12623.452      0.9003038 
  12643.458      0.9003038 
  12663.463     0.90316755 
  12683.469      0.9095863 
  12703.474      0.9180788 
   12723.48     0.92815125 
  12743.485      0.9371375 
   12763.49     0.94395125 
  12783.496     0.94987625 
  12803.501       0.950765 
  12823.507      0.9512588 
  12843.512     0.95135754 
  12863.518       0.950765 
  12883.523      0.9508637 
  12903.528      0.9512588 
  12923.534     0.95343125 
  12943.539      0.9540237 
  12963.545      0.9567888 
   12983.55     0.95896125 
  13003.556      0.9552088 
  13023.561      0.9303238 
  13043.567      0.8536937 
  13063.572        0.69994 
  13083.577     0.49424377 
  13103.583     0.30671751 
  13123.588     0.17587376 
  13143.594     0.09832537 
  13163.599     0.05571475 
  13183.605     0.03229125 
   13203.61    0.019345125 
  13223.615      0.0117315 
  13243.621    0.007562275 
  13263.626   0.0047785123 
  13283.632   0.0032775125 
  13303.637   0.0021715125 
  13323.643   0.0015987625 
  13343.648  0.00092765753 
  13363.653    0.000750105 
  13383.659   0.0005724537 
  13403.664  0.00059210503 
   13423.67   0.0006512563 
  13443.675   0.0006117563 
  13503.692  0.00039470373 
  13953.814  0.00029615127 
  14053.841   9.874013e-05 
  14203.882  0.00029605252 
  14303.909    9.87105e-05 
  14553.977  0.00029605252 
  14654.004  0.00029605252 
  14704.018  0.00029605252 
  14904.072  0.00019740124 
  14954.086  0.00019740124 
  15054.113   9.870062e-05 
  15104.126  0.00019740124 
  15204.154  0.00019740124 
  15354.194  0.00029615127 
  15404.208  9.8730256e-05 
  15454.222  9.8720375e-05 
  15604.262  0.00029615127 
   15704.29  0.00029615127 
  15754.303    9.87105e-05 
  15804.317  0.00019740124 
   15854.33  0.00019740124 
  15954.358  0.00019740124 
  16004.371  0.00019740124 
  16054.385  9.8690754e-05 
  16104.398  0.00029615127 
  16154.412  0.00019749999 
  16204.426  0.00019740124 
  16304.453    9.87105e-05 
  16454.494  0.00019740124 
  16554.521  9.8730256e-05 
  16704.562   9.868088e-05 
  16754.574   9.870062e-05 
  16854.602  9.8730256e-05 
   16954.63    9.87105e-05 
   17104.67  0.00029605252 
  17154.684   9.870062e-05 
  17554.793  9.8730256e-05 
   18054.93  0.00039480248 
  18104.943   0.0009869075 
  18154.955    0.003553025 
   18204.97    0.024578875 
  18254.982     0.28598002 
  18304.996       0.136275 
  18355.012    0.049454004 
  18405.023      0.0404875 
  18455.037    0.049167626 
   18505.05     0.08320675 
  18555.064     0.19177249 
  18605.078       0.479135 
  18655.092     0.69589126 
  18705.105      0.5930925 
   18755.12      0.5283125 
  18805.133      0.4761725 
  18855.146        0.34286 
   18905.16     0.21655875 
  18955.174     0.15059376 
  19005.188      0.1226475 
  19055.201       0.122055 
  19105.215     0.14842124 
  19155.229        0.22594 
  19205.242     0.41267624 
  19255.256      0.6835475 
   19305.27      0.6287412 
  19355.283        0.39105 
  19405.297       0.267415 
   19455.31     0.22031125 
  19505.324      0.2123125 
  19555.338     0.22840875 
  19605.352     0.26099625 
  19655.363     0.30276752 
  19705.379     0.34453875 
  19755.393     0.38601375 
  19805.404      0.4429925 
   19855.42     0.53631127 
  19905.432     0.68334997 
  19955.445       0.852015 
   20005.46      0.9176838 
   20006.46            0.0 
   20007.46            0.0 
