# author : Miguel Verdugo
# source : skycalc_ipy tool for standard Armazones conditions
# date_created : 2020-10-29
# date_modified : 2020-10-29
# status : Design
# type : atmosphere:ter_curve
# pwv : 2.5
# airmass : 1.2
# wdelta : 1
# wmin : 300
# wmax : 1100
# season : entire year
# time : entire night
# action : transmission
# wavelength_unit : um
# emission_unit : ph s-1 m-2 um-1 arcsec-2
# changes :
# - 2020-10-29 (MV) Created file
wavelength  transmission    emission
0.300       0.0187         12.1
0.301       0.0270         17.2
0.302       0.0368         24.8
0.303       0.0533         40.0
0.304       0.0639         52.1
0.305       0.0870         70.8
0.306       0.1031         82.0
0.307       0.1239         98.8
0.308       0.1453        120.3
0.309       0.1608        124.8
0.310       0.1953        149.2
0.311       0.2104        182.3
0.312       0.2339        208.5
0.313       0.2576        222.3
0.314       0.2670        240.0
0.315       0.2980        283.3
0.316       0.3061        246.0
0.317       0.3294        282.6
0.318       0.3361        290.8
0.319       0.3713        305.3
0.320       0.3551        305.3
0.321       0.3994        381.0
0.322       0.3848        331.1
0.323       0.4007        311.5
0.324       0.4343        345.9
0.325       0.4101        351.0
0.326       0.4404        426.6
0.327       0.4548        457.8
0.328       0.4352        415.8
0.329       0.4682        457.0
0.330       0.4768        509.2
0.331       0.4665        456.0
0.332       0.4851        442.7
0.333       0.4916        438.6
0.334       0.4867        418.2
0.335       0.5023        430.9
0.336       0.5087        409.3
0.337       0.5085        411.9
0.338       0.5135        437.1
0.339       0.5214        425.5
0.340       0.5230        429.9
0.341       0.5280        427.6
0.342       0.5335        427.8
0.343       0.5370        429.3
0.344       0.5373        400.3
0.345       0.5442        395.7
0.346       0.5490        428.7
0.347       0.5532        401.4
0.348       0.5566        434.4
0.349       0.5607        427.2
0.350       0.5641        418.8
0.351       0.5677        431.5
0.352       0.5705        400.7
0.353       0.5744        395.8
0.354       0.5780        430.4
0.355       0.5812        459.9
0.356       0.5844        441.9
0.357       0.5872        372.8
0.358       0.5902        330.2
0.359       0.5930        345.6
0.360       0.5957        397.3
0.361       0.5989        383.0
0.362       0.6028        411.6
0.363       0.6067        425.6
0.364       0.6102        434.1
0.365       0.6135        435.4
0.366       0.6167        467.9
0.367       0.6197        481.1
0.368       0.6227        460.4
0.369       0.6257        460.1
0.370       0.6286        492.8
0.371       0.6315        472.4
0.372       0.6344        456.9
0.373       0.6372        418.4
0.374       0.6400        422.0
0.375       0.6427        411.1
0.376       0.6454        440.2
0.377       0.6479        467.6
0.378       0.6503        516.2
0.379       0.6525        489.1
0.380       0.6550        452.5
0.381       0.6577        457.4
0.382       0.6608        420.1
0.383       0.6638        357.5
0.384       0.6665        357.4
0.385       0.6692        413.3
0.386       0.6717        407.1
0.387       0.6742        403.6
0.388       0.6767        401.7
0.389       0.6791        427.1
0.390       0.6815        468.1
0.391       0.6839        530.9
0.392       0.6863        492.2
0.393       0.6886        366.6
0.394       0.6909        337.8
0.395       0.6932        469.8
0.396       0.6955        459.9
0.397       0.6977        368.6
0.398       0.6999        476.6
0.399       0.7021        613.7
0.400       0.7043        640.6
0.401       0.7066        668.8
0.402       0.7088        682.8
0.403       0.7111        668.4
0.404       0.7133        646.9
0.405       0.7155        662.6
0.406       0.7177        645.9
0.407       0.7198        627.3
0.408       0.7220        649.1
0.409       0.7241        661.1
0.410       0.7261        619.8
0.411       0.7282        599.6
0.412       0.7303        655.5
0.413       0.7323        632.6
0.414       0.7344        606.4
0.415       0.7364        589.3
0.416       0.7383        616.8
0.417       0.7403        633.6
0.418       0.7422        580.5
0.419       0.7441        582.0
0.420       0.7460        586.0
0.421       0.7479        599.7
0.422       0.7498        580.2
0.423       0.7516        555.7
0.424       0.7534        584.2
0.425       0.7552        593.8
0.426       0.7570        571.7
0.427       0.7588        556.5
0.428       0.7606        535.0
0.429       0.7623        529.0
0.430       0.7641        471.0
0.431       0.7658        467.8
0.432       0.7674        572.2
0.433       0.7690        561.6
0.434       0.7707        572.3
0.435       0.7724        563.7
0.436       0.7740        595.5
0.437       0.7756        621.9
0.438       0.7772        571.9
0.439       0.7787        557.6
0.440       0.7801        594.4
0.441       0.7816        617.8
0.442       0.7830        645.1
0.443       0.7843        637.5
0.444       0.7859        628.7
0.445       0.7874        624.7
0.446       0.7889        604.2
0.447       0.7904        631.6
0.448       0.7919        652.1
0.449       0.7934        637.2
0.450       0.7948        655.5
0.451       0.7962        672.7
0.452       0.7977        647.0
0.453       0.7991        622.4
0.454       0.8005        635.7
0.455       0.8018        638.0
0.456       0.8031        643.5
0.457       0.8043        654.1
0.458       0.8054        650.9
0.459       0.8065        628.1
0.460       0.8076        630.3
0.461       0.8088        635.8
0.462       0.8100        641.9
0.463       0.8112        642.5
0.464       0.8126        624.1
0.465       0.8139        618.7
0.466       0.8152        622.3
0.467       0.8163        615.0
0.468       0.8173        632.9
0.469       0.8182        619.3
0.470       0.8191        608.3
0.471       0.8199        606.2
0.472       0.8208        634.2
0.473       0.8215        633.2
0.474       0.8221        632.1
0.475       0.8224        639.9
0.476       0.8222        626.5
0.477       0.8223        627.1
0.478       0.8232        640.3
0.479       0.8248        635.9
0.480       0.8264        643.3
0.481       0.8280        643.5
0.482       0.8295        650.4
0.483       0.8309        638.1
0.484       0.8324        628.0
0.485       0.8338        604.8
0.486       0.8351        561.3
0.487       0.8362        542.3
0.488       0.8372        587.6
0.489       0.8381        603.0
0.490       0.8388        614.4
0.491       0.8397        615.0
0.492       0.8406        592.5
0.493       0.8414        591.7
0.494       0.8423        609.1
0.495       0.8431        623.5
0.496       0.8438        603.7
0.497       0.8444        618.5
0.498       0.8449        602.8
0.499       0.8452        584.5
0.500       0.8455        589.7
0.501       0.8457        565.7
0.502       0.8458        564.4
0.503       0.8459        581.1
0.504       0.8454        580.4
0.505       0.8469        581.5
0.506       0.8475        598.6
0.507       0.8484        587.9
0.508       0.8495        580.7
0.509       0.8507        582.5
0.510       0.8518        584.1
0.511       0.8528        594.2
0.512       0.8535        590.5
0.513       0.8541        568.5
0.514       0.8547        568.8
0.515       0.8552        573.3
0.516       0.8558        556.1
0.517       0.8563        523.3
0.518       0.8568        526.0
0.519       0.8574        543.9
0.520       0.8579        673.7
0.521       0.8582        570.5
0.522       0.8584        574.6
0.523       0.8586        579.7
0.524       0.8586        597.0
0.525       0.8585        593.3
0.526       0.8585        586.5
0.527       0.8584        531.6
0.528       0.8584        574.1
0.529       0.8583        575.6
0.530       0.8584        592.3
0.531       0.8585        598.2
0.532       0.8588        573.5
0.533       0.8592        570.4
0.534       0.8599        573.4
0.535       0.8607        577.8
0.536       0.8616        587.5
0.537       0.8623        567.2
0.538       0.8629        570.8
0.539       0.8634        567.9
0.540       0.8637        550.4
0.541       0.8638        549.5
0.542       0.8640        562.2
0.543       0.8645        557.6
0.544       0.8645        566.3
0.545       0.8649        571.1
0.546       0.8650        575.4
0.547       0.8656        570.8
0.548       0.8660        568.8
0.549       0.8665        579.3
0.550       0.8669        579.8
0.551       0.8672        572.5
0.552       0.8676        569.7
0.553       0.8678        566.7
0.554       0.8680        584.3
0.555       0.8682        592.8
0.556       0.8683        572.0
0.557       0.8683        590.6
0.558       0.8682       4745.8
0.559       0.8680        575.1
0.560       0.8677        570.6
0.561       0.8674        594.4
0.562       0.8671        573.7
0.563       0.8668        598.7
0.564       0.8665        580.2
0.565       0.8663        582.4
0.566       0.8659        564.3
0.567       0.8656        586.0
0.568       0.8649        578.1
0.569       0.8636        570.0
0.570       0.8633        574.8
0.571       0.8633        562.2
0.572       0.8623        576.6
0.573       0.8620        587.0
0.574       0.8618        584.5
0.575       0.8618        581.0
0.576       0.8621        576.4
0.577       0.8626        579.9
0.578       0.8636        576.1
0.579       0.8651        568.8
0.580       0.8672        578.0
0.581       0.8695        582.2
0.582       0.8714        587.3
0.583       0.8731        590.1
0.584       0.8744        588.4
0.585       0.8755        583.0
0.586       0.8763        574.7
0.587       0.8768        701.0
0.588       0.8759        581.2
0.589       0.8729       1219.7
0.590       0.8735        917.6
0.591       0.8756        600.3
0.592       0.8743        636.0
0.593       0.8755        688.7
0.594       0.8751        567.9
0.595       0.8744        593.3
0.596       0.8761        662.3
0.597       0.8759        588.9
0.598       0.8764        604.4
0.599       0.8768        560.4
0.600       0.8774        572.8
0.601       0.8779        579.3
0.602       0.8782        555.3
0.603       0.8788        564.5
0.604       0.8795        577.1
0.605       0.8801        564.2
0.606       0.8809        562.2
0.607       0.8817        567.9
0.608       0.8827        560.8
0.609       0.8836        558.4
0.610       0.8845        559.7
0.611       0.8856        556.0
0.612       0.8865        555.5
0.613       0.8873        546.9
0.614       0.8881        570.7
0.615       0.8889        577.6
0.616       0.8896        549.8
0.617       0.8903        580.0
0.618       0.8909        565.1
0.619       0.8915        571.0
0.620       0.8919        590.0
0.621       0.8923        564.3
0.622       0.8926        590.6
0.623       0.8928        542.6
0.624       0.8930        777.9
0.625       0.8932        587.7
0.626       0.8933        712.2
0.627       0.8933        609.3
0.628       0.8686        544.4
0.629       0.8845        661.5
0.630       0.8833       3615.9
0.631       0.8910        705.1
0.632       0.8941        573.1
0.633       0.8969        717.8
0.634       0.8988        529.4
0.635       0.9003        561.8
0.636       0.9017        618.4
0.637       0.9031       1536.4
0.638       0.9045        549.8
0.639       0.9056        570.6
0.640       0.9068        522.0
0.641       0.9079        517.2
0.642       0.9088        558.2
0.643       0.9096        519.1
0.644       0.9105        518.5
0.645       0.9111        525.5
0.646       0.9110        528.4
0.647       0.9099        727.7
0.648       0.9087        530.6
0.649       0.9094        500.3
0.650       0.9129        736.8
0.651       0.9141        580.1
0.652       0.9109        570.9
0.653       0.9149        674.0
0.654       0.9159        510.2
0.655       0.9144        563.3
0.656       0.9168        702.6
0.657       0.9171        512.7
0.658       0.9183        646.7
0.659       0.9193        508.0
0.660       0.9202        535.0
0.661       0.9211        578.9
0.662       0.9218        507.2
0.663       0.9224        521.2
0.664       0.9229        535.5
0.665       0.9235        507.4
0.666       0.9241        516.7
0.667       0.9247        511.1
0.668       0.9253        498.4
0.669       0.9259        499.0
0.670       0.9265        503.3
0.671       0.9270        500.8
0.672       0.9276        497.4
0.673       0.9281        493.1
0.674       0.9286        498.8
0.675       0.9291        493.6
0.676       0.9296        485.5
0.677       0.9301        485.6
0.678       0.9306        483.8
0.679       0.9310        493.3
0.680       0.9314        481.1
0.681       0.9318        481.8
0.682       0.9322        480.8
0.683       0.9325        823.4
0.684       0.9329        784.9
0.685       0.9333        481.8
0.686       0.9337        524.0
0.687       0.7388        874.6
0.688       0.8156        471.1
0.689       0.8230        516.9
0.690       0.8364        530.2
0.691       0.8751        575.9
0.692       0.8976        448.7
0.693       0.9108        726.6
0.694       0.9176        584.0
0.695       0.9269        794.8
0.696       0.9262        474.7
0.697       0.9364        556.9
0.698       0.9367        643.3
0.699       0.9315        468.8
0.700       0.9325        471.8
0.701       0.9327        582.5
0.702       0.9340        446.0
0.703       0.9337        449.9
0.704       0.9366        481.3
0.705       0.9371        548.4
0.706       0.9388        482.3
0.707       0.9392        492.1
0.708       0.9395        504.9
0.709       0.9409        500.9
0.710       0.9409        455.2
0.711       0.9414        461.1
0.712       0.9419        454.7
0.713       0.9420        486.1
0.714       0.9418        473.1
0.715       0.9406        497.9
0.716       0.9404        471.9
0.717       0.9198        462.7
0.718       0.9022        473.3
0.719       0.8777        417.9
0.720       0.8926        430.0
0.721       0.9114        429.2
0.722       0.9388        449.3
0.723       0.9207        458.8
0.724       0.9031       1306.9
0.725       0.9056       1123.6
0.726       0.9196        649.6
0.727       0.9137        497.1
0.728       0.9110       1579.4
0.729       0.9183        894.3
0.730       0.9311        558.7
0.731       0.9195        733.5
0.732       0.9323       1281.5
0.733       0.9412        804.4
0.734       0.9429       1459.8
0.735       0.9427        502.6
0.736       0.9436        789.8
0.737       0.9433       1337.7
0.738       0.9472        480.0
0.739       0.9464        695.6
0.740       0.9485        926.9
0.741       0.9493        457.8
0.742       0.9500        475.3
0.743       0.9503        757.8
0.744       0.9508        710.6
0.745       0.9511        452.0
0.746       0.9512        494.9
0.747       0.9514        694.7
0.748       0.9516        797.6
0.749       0.9519        659.7
0.750       0.9522        526.4
0.751       0.9525        442.5
0.752       0.9528        565.0
0.753       0.9532       1319.1
0.754       0.9534        503.6
0.755       0.9537        458.4
0.756       0.9540        594.1
0.757       0.9542        914.9
0.758       0.9545        498.0
0.759       0.9527        600.0
0.760       0.3905        343.2
0.761       0.2917        152.6
0.762       0.6855        486.0
0.763       0.4593        426.4
0.764       0.5883        305.6
0.765       0.6715        327.1
0.766       0.7664        584.7
0.767       0.8479        391.8
0.768       0.9149        449.7
0.769       0.9314        597.3
0.770       0.9466        579.5
0.771       0.9534       1369.8
0.772       0.9550       1747.3
0.773       0.9555        841.6
0.774       0.9560        602.3
0.775       0.9564       2033.0
0.776       0.9566       1170.2
0.777       0.9568        521.9
0.778       0.9569       1078.7
0.779       0.9570        592.0
0.780       0.9572       1676.1
0.781       0.9574        986.8
0.782       0.9576       2062.4
0.783       0.9578        519.7
0.784       0.9579        940.4
0.785       0.9580        734.7
0.786       0.9581       2634.1
0.787       0.9566       1295.5
0.788       0.9564       1088.6
0.789       0.9555        915.5
0.790       0.9523        562.7
0.791       0.9552        723.1
0.792       0.9556       3106.7
0.793       0.9553       1099.9
0.794       0.9594        535.4
0.795       0.9587        982.6
0.796       0.9546        479.0
0.797       0.9550       2069.9
0.798       0.9588       1184.4
0.799       0.9578        531.1
0.800       0.9565       2098.7
0.801       0.9564        514.4
0.802       0.9566        986.7
0.803       0.9564       1817.8
0.804       0.9572        518.2
0.805       0.9580        783.2
0.806       0.9599       1023.8
0.807       0.9595        503.1
0.808       0.9600        535.2
0.809       0.9587        537.8
0.810       0.9574        799.5
0.811       0.9560        575.4
0.812       0.9524        495.7
0.813       0.9494        522.9
0.814       0.9265        576.5
0.815       0.9255        597.3
0.816       0.9001        466.9
0.817       0.9054        468.3
0.818       0.9043        465.6
0.819       0.9273        513.2
0.820       0.9142        516.8
0.821       0.9533        523.1
0.822       0.9468        507.9
0.823       0.8561        445.4
0.824       0.9417        522.3
0.825       0.9455        535.5
0.826       0.9367        513.0
0.827       0.9495        512.2
0.828       0.9132       1733.5
0.829       0.9380       1953.8
0.830       0.9379       2268.0
0.831       0.9394       1002.8
0.832       0.9306        563.0
0.833       0.9556        514.3
0.834       0.9481        564.6
0.835       0.9609       4307.4
0.836       0.9540       1763.3
0.837       0.9619        958.0
0.838       0.9600       1440.4
0.839       0.9622        583.1
0.840       0.9630       3291.5
0.841       0.9621        537.6
0.842       0.9635       1532.6
0.843       0.9647       3301.9
0.844       0.9639        593.9
0.845       0.9654       1464.3
0.846       0.9655        587.1
0.847       0.9662       2824.7
0.848       0.9655        603.9
0.849       0.9656        542.5
0.850       0.9659       1277.3
0.851       0.9648       1699.2
0.852       0.9656        584.7
0.853       0.9660        551.8
0.854       0.9655       1520.1
0.855       0.9665        972.7
0.856       0.9662        548.3
0.857       0.9667        576.3
0.858       0.9668        659.1
0.859       0.9670        682.9
0.860       0.9674        741.8
0.861       0.9675        628.3
0.862       0.9677       1038.1
0.863       0.9678       1832.5
0.864       0.9681       1468.4
0.865       0.9682       1406.9
0.866       0.9683       2021.1
0.867       0.9684       1880.3
0.868       0.9686       1306.9
0.869       0.9687        808.8
0.870       0.9688        757.5
0.871       0.9689        713.6
0.872       0.9691        583.3
0.873       0.9692        602.0
0.874       0.9692        627.1
0.875       0.9693        622.0
0.876       0.9694       3203.4
0.877       0.9695       3464.3
0.878       0.9695       3722.0
0.879       0.9696       1544.0
0.880       0.9697        588.0
0.881       0.9694        724.5
0.882       0.9694        578.5
0.883       0.9697       6777.5
0.884       0.9697       3214.5
0.885       0.9697       1356.4
0.886       0.9687        649.1
0.887       0.9694       2233.7
0.888       0.9684        581.9
0.889       0.9703       5049.1
0.890       0.9688        667.6
0.891       0.9697       2534.8
0.892       0.9681       5410.0
0.893       0.9635        737.6
0.894       0.9603        655.9
0.895       0.9517       2157.2
0.896       0.9345       4537.9
0.897       0.9045        662.7
0.898       0.9197        697.2
0.899       0.8460       1687.5
0.900       0.9240       2758.7
0.901       0.8951        538.0
0.902       0.9128        601.3
0.903       0.9016        603.0
0.904       0.9612       1131.4
0.905       0.9548       1667.6
0.906       0.9416        608.6
0.907       0.8963        708.0
0.908       0.9056        560.1
0.909       0.9154        711.0
0.910       0.9075       1025.0
0.911       0.9230        815.5
0.912       0.9184        556.9
0.913       0.9096        551.7
0.914       0.9013        588.2
0.915       0.9368        800.4
0.916       0.8837        954.4
0.917       0.9434        573.8
0.918       0.8950        549.1
0.919       0.9393        570.9
0.920       0.9395        573.1
0.921       0.9574        595.3
0.922       0.9386        748.7
0.923       0.9554        851.2
0.924       0.9447        574.2
0.925       0.9378        571.2
0.926       0.9474        578.5
0.927       0.9599        587.7
0.928       0.9101        557.7
0.929       0.9034        555.0
0.930       0.8385        514.8
0.931       0.8015       3018.1
0.932       0.7320       3963.7
0.933       0.6919       3219.0
0.934       0.6420       1164.2
0.935       0.6529        399.7
0.936       0.5914        355.8
0.937       0.6297        380.0
0.938       0.6831       7357.1
0.939       0.8112        731.2
0.940       0.8648       1563.8
0.941       0.8180        496.4
0.942       0.8259       2225.8
0.943       0.6929        419.0
0.944       0.7121       4714.7
0.945       0.8083        588.9
0.946       0.6576       2231.9
0.947       0.8253        508.6
0.948       0.7077       4595.1
0.949       0.8950        548.6
0.950       0.6050        367.6
0.951       0.9196       2124.9
0.952       0.7303       2925.0
0.953       0.7974        488.8
0.954       0.8486        520.9
0.955       0.8078        496.9
0.956       0.7892       1497.7
0.957       0.7609       2694.0
0.958       0.8449        523.8
0.959       0.8215        509.2
0.960       0.8544        530.6
0.961       0.8588       1001.9
0.962       0.8516       1199.9
0.963       0.8792        547.8
0.964       0.8663        540.2
0.965       0.8786        552.3
0.966       0.8920        737.1
0.967       0.8855       1350.1
0.968       0.9343       2638.3
0.969       0.9555       1445.7
0.970       0.9372       3802.6
0.971       0.9625       1947.9
0.972       0.9458       4705.5
0.973       0.9342        589.9
0.974       0.9210       2127.3
0.975       0.9116        688.0
0.976       0.9135        578.1
0.977       0.9381        594.9
0.978       0.9416        597.7
0.979       0.9351      10928.3
0.980       0.9258       4626.3
0.981       0.9650       1987.0
0.982       0.9613        640.4
0.983       0.9508        978.9
0.984       0.9730        622.6
0.985       0.9587       3171.9
0.986       0.9740        624.3
0.987       0.9725       8944.8
0.988       0.9711        636.9
0.989       0.9758        630.3
0.990       0.9722       3686.3
0.991       0.9754        627.7
0.992       0.9760       9221.5
0.993       0.9738        629.3
0.994       0.9762       3540.4
0.995       0.9768       7885.0
0.996       0.9766      10743.8
0.997       0.9767        634.4
0.998       0.9768       1803.0
0.999       0.9768        635.4
1.000       0.9760       1831.0
1.001       0.9770       1432.0
1.002       0.9743      10885.8
1.003       0.9769       3659.0
1.004       0.9762        747.6
1.005       0.9774       1816.9
1.006       0.9768       2719.1
1.007       0.9772       1931.7
1.008       0.9766        640.0
1.009       0.9762       5973.5
1.010       0.9756        772.0
1.011       0.9776       2812.1
1.012       0.9769        646.0
1.013       0.9777       7195.8
1.014       0.9777        781.6
1.015       0.9778       1193.1
1.016       0.9775       4191.8
1.017       0.9775       9776.9
1.018       0.9782       2767.9
1.019       0.9767       8325.9
1.020       0.9781        695.8
1.021       0.9781      14536.3
1.022       0.9778        650.2
1.023       0.9777       6993.6
1.024       0.9765        652.1
1.025       0.9783        654.3
1.026       0.9780        654.8
1.027       0.9782       1341.9
1.028       0.9780        656.8
1.029       0.9780      29415.6
1.030       0.9785      10230.0
1.031       0.9783       3830.5
1.032       0.9786        659.0
1.033       0.9785       1574.8
1.034       0.9786        950.1
1.035       0.9787       6290.0
1.036       0.9786       1225.2
1.037       0.9783        693.5
1.038       0.9785      18736.8
1.039       0.9785        696.9
1.040       0.9785       7448.4
1.041       0.9784        715.7
1.042       0.9785      19807.7
1.043       0.9785        894.6
1.044       0.9784        726.9
1.045       0.9783       5893.2
1.046       0.9782        708.9
1.047       0.9781      13261.0
1.048       0.9779        694.3
1.049       0.9773        686.6
1.050       0.9769        705.8
1.051       0.9771       3511.7
1.052       0.9765        663.5
1.053       0.9762       6673.5
1.054       0.9758        647.1
1.055       0.9751        639.4
1.056       0.9744        631.8
1.057       0.9735        622.7
1.058       0.9725       1722.5
1.059       0.9716       2787.9
1.060       0.9710        606.9
1.061       0.9706        589.8
1.062       0.9700        582.7
1.063       0.9693        590.5
1.064       0.9687        931.3
1.065       0.9677        908.9
1.066       0.9678        916.8
1.067       0.9685        621.3
1.068       0.9679        628.8
1.069       0.9700       1709.8
1.070       0.9716       3053.1
1.071       0.9737       7468.4
1.072       0.9737       3351.5
1.073       0.9750      11642.5
1.074       0.9769        684.2
1.075       0.9736      18078.1
1.076       0.9776        701.5
1.077       0.9753        787.7
1.078       0.9758       5128.7
1.079       0.9793        728.5
1.080       0.9737        759.5
1.081       0.9746        753.0
1.082       0.9786        749.9
1.083       0.9782      37452.1
1.084       0.9723      13900.4
1.085       0.9773       1149.8
1.086       0.9620       4772.7
1.087       0.9759        853.8
1.088       0.9785       1881.1
1.089       0.9745        679.8
1.090       0.9672       8169.4
1.091       0.9772        661.5
1.092       0.9801        653.0
1.093       0.9533      24405.6
1.094       0.9767        624.0
1.095       0.9650       9763.4
1.096       0.9590        596.9
1.097       0.9792        608.6
1.098       0.9602      26471.3
1.099       0.9627        569.4
1.100       0.9486        553.3

